acc_x, acc_y, angular_z, stamp, 
-0.006968021392822266,-0.010388016700744629,5.91215650813735e-06,1696622995649899626,
-0.007018685340881348,-0.02296549081802368,5.965055575795275e-06,1696622995659897915,
-0.00837475061416626,-0.04440867900848389,5.982212948901043e-06,1696622995669867476,
-0.021207571029663086,0.002316415309906006,5.946097962494597e-06,1696622995679897354,
-0.01725703477859497,-0.010157644748687744,1.1905473750951394e-05,1696622995689913075,
-0.015365540981292725,0.00964975357055664,3.0407260586193056e-09,1696622995700023135,
-0.004474461078643799,0.011477470397949219,2.5105258914259247e-09,1696622995711750860,
-0.011652886867523193,0.02044498920440674,3.378529101380682e-09,1696622995719934476,
0.006551563739776611,0.025808334350585938,2.6010855443703816e-09,1696622995730106786,
0.00846409797668457,0.02035701274871826,6.018445667085997e-06,1696622995740014566,
-0.018617212772369385,0.02920764684677124,5.980715767163906e-06,1696622995749984666,
0.03194773197174072,0.0075691938400268555,5.860096736904025e-06,1696622995760159721,
0.00824826955795288,-0.0033419132232666016,2.0960955224650906e-09,1696622995770039817,
0.019274234771728516,0.00018703937530517578,2.020127236421749e-09,1696622995780050784,
0.0029587149620056152,-0.041159212589263916,1.7089406204105061e-09,1696622995791583399,
0.008728861808776855,-0.024936318397521973,6.944205488151467e-06,1696622995800169531,
-0.013127744197845459,-0.033881962299346924,5.9333211544169646e-06,1696622995810218435,
-0.04150813817977905,-0.04270792007446289,4.839252970404261e-06,1696622995822539110,
-0.0004888176918029785,-0.0013166069984436035,2.3291067735775544e-09,1696622995830142511,
0.0015881657600402832,0.022131621837615967,1.7162917260329211e-09,1696622995840177070,
-0.012869775295257568,0.013185620307922363,1.727923791291698e-09,1696622995850125150,
-0.01630765199661255,0.015013158321380615,1.5781735965931516e-09,1696622995860183418,
0.01426607370376587,0.04191315174102783,5.297513990843177e-06,1696622995871437618,
0.010683596134185791,0.013116836547851562,6.803354813842056e-06,1696622995880200787,
-0.005316674709320068,0.002297520637512207,1.4508770431530542e-09,1696622995889273187,
0.00899595022201538,0.012995123863220215,9.595528066818191e-10,1696622995902692112,
-0.00700223445892334,-0.017564058303833008,1.5669554222966436e-09,1696622995910215023,
0.005372583866119385,-0.03553134202957153,5.858501333578666e-06,1696622995920391026,
-0.01936519145965576,-0.008525729179382324,6.044393848840923e-06,1696622995930254079,
-0.04294300079345703,-0.012108981609344482,6.585706826388452e-06,1696622995939306271,
-0.03718060255050659,0.005905747413635254,7.6880396923086e-10,1696622995951959276,
-0.010183393955230713,-0.024572908878326416,1.1709014682495757e-09,1696622995959337418,
0.0008178949356079102,0.0060204267501831055,5.957311766275118e-06,1696622995969343984,
-0.0025672316551208496,0.024000585079193115,4.455604282764421e-06,1696622995982723000,
0.024416089057922363,0.02755814790725708,7.992719328742505e-10,1696622995990338105,
-0.000649571418762207,0.0113486647605896,5.235422991228382e-10,1696622996000390794,
-0.00243377685546875,0.013077259063720703,4.836698972800172e-10,1696622996010380136,
0.010364234447479248,0.029159843921661377,5.910234225076253e-06,1696622996020465882,
0.03868663311004639,-0.0032990574836730957,3.6649305949759177e-10,1696622996031816524,
0.0229189395904541,-0.01947110891342163,4.822531113880603e-10,1696622996040412607,
-0.01514732837677002,-0.017731070518493652,3.9449005474170855e-10,1696622996050711954,
-0.030918896198272705,-0.0033407211303710938,4.87708813329299e-06,1696622996062934123,
-0.02020418643951416,-0.024883687496185303,7.929161792128446e-06,1696622996070451708,
-0.003971993923187256,-0.010477840900421143,3.0378522064027476e-10,1696622996080509141,
-0.02719634771347046,-0.021186351776123047,2.2940213101907796e-10,1696622996090466521,
-0.032526612281799316,-0.021102964878082275,1.728541012646078e-10,1696622996100518507,
-0.0125008225440979,0.0041335225105285645,5.427913711689753e-06,1696622996111499808,
0.02530837059020996,0.0006125569343566895,1.0724806966454501e-10,1696622996120544634,
-0.008901119232177734,0.015006482601165771,5.937393712339913e-06,1696622996130583535,
-0.003279387950897217,0.011452019214630127,4.587262895000691e-06,1696622996143577071,
0.03810298442840576,-0.010060310363769531,8.554338919291638e-06,1696622996150544841,
0.016467392444610596,0.009707391262054443,-5.333136697729936e-11,1696622996160610281,
-0.001371622085571289,0.0025492310523986816,-5.811278585820743e-12,1696622996170581571,
-0.010462164878845215,-0.00821530818939209,5.938416389350295e-06,1696622996180618593,
-0.037043094635009766,-0.027878105640411377,5.470980196404044e-06,1696622996191513139,
-0.02820223569869995,-0.017041921615600586,-8.700526550529344e-11,1696622996200643281,
0.007869422435760498,-0.006171286106109619,-1.724227698852632e-10,1696622996210907493,
-0.018846631050109863,-0.015036225318908691,4.663688568462291e-06,1696622996223687686,
-0.02785855531692505,-0.0023819804191589355,-3.7427612732444797e-10,1696622996230669909,
-0.002698957920074463,0.004874765872955322,-3.3396099663523757e-10,1696622996240760054,
0.0013020634651184082,0.012148857116699219,5.988783939792732e-06,1696622996250712127,
0.00837010145187378,0.012164473533630371,-4.378591092639628e-10,1696622996260775062,
0.028580904006958008,0.022983253002166748,-3.715822960188828e-10,1696622996271936155,
0.035723328590393066,-0.005748391151428223,6.730837699172954e-06,1696622996280790974,
-0.004211008548736572,0.01754051446914673,-4.1619437515335984e-10,1696622996290790302,
-0.0037707090377807617,0.003195524215698242,-2.953245144928067e-10,1696622996303665716,
0.026434719562530518,0.0031415224075317383,8.032773499662023e-06,1696622996311085419,
-0.05230468511581421,-0.020174920558929443,-3.6753059843564405e-10,1696622996320914777,
-0.03450202941894531,-0.02913081645965576,-4.3962012273365056e-10,1696622996330882074,
-0.008856475353240967,-0.02003312110900879,5.519336807432295e-06,1696622996341680484,
0.007447540760040283,-0.016340196132659912,-5.156790181131177e-10,1696622996351785159,
-0.007344186305999756,-0.009106576442718506,-5.260466475883686e-10,1696622996361751429,
0.016609549522399902,0.007197558879852295,6.0567808706752e-06,1696622996371591515,
0.017930805683135986,0.010799586772918701,-4.6265905123991385e-10,1696622996383378138,
0.0002849102020263672,-0.008857786655426025,7.309840823418323e-06,1696622996391531409,
0.007225334644317627,-0.0034260153770446777,5.759920615901234e-06,1696622996401878610,
0.01805126667022705,0.00023704767227172852,-5.540284054732212e-10,1696622996411589909,
-0.0069789886474609375,-0.017626047134399414,5.948232766904678e-06,1696622996421609554,
0.010780692100524902,-0.01395261287689209,-5.098868753104998e-10,1696622996431648987,
-0.01943063735961914,-0.020981431007385254,-5.123525049584515e-10,1696622996441615281,
-0.0017780661582946777,-0.0011411309242248535,5.9789493432142074e-06,1696622996451583444,
-0.001592397689819336,-0.0028079748153686523,-4.1413602766860646e-10,1696622996464217894,
0.007475793361663818,0.004481911659240723,-7.496260032012563e-10,1696622996471650685,
-0.005065560340881348,-0.0008132457733154297,5.931305608783629e-06,1696622996481698887,
-0.0034267306327819824,-0.0025389790534973145,-5.385565933115653e-10,1696622996491630162,
-0.006899356842041016,0.0190771222114563,5.920651481337684e-06,1696622996501696496,
-0.005255997180938721,0.017285943031311035,5.963961471918056e-06,1696622996511689699,
0.02887481451034546,-0.006030380725860596,-5.271932566468418e-10,1696622996521692422,
-0.01582503318786621,0.0029940009117126465,5.978408336297434e-06,1696622996531661534,
-0.014117538928985596,-0.007760822772979736,-4.155817319527291e-10,1696622996543660067,
-0.010632514953613281,-0.023874342441558838,7.415864405278325e-06,1696622996551696802,
0.009342551231384277,-0.012997210025787354,5.963396684800384e-06,1696622996561691014,
-0.01948082447052002,-0.01112377643585205,-5.373213450462231e-10,1696622996571698878,
0.009472846984863281,-0.011004328727722168,5.948697084126904e-06,1696622996581717726,
0.004025280475616455,-0.009109973907470703,6.226060491690849e-06,1696622996591290218,
-0.010218143463134766,0.0017718076705932617,-5.654785176977223e-10,1696622996601719172,
-0.0012636780738830566,0.023372948169708252,5.97675998981329e-06,1696622996611690949,
-0.006638586521148682,-0.017863333225250244,-5.262660872963542e-10,1696622996623658967,
0.007728278636932373,0.01092594861984253,-7.875285407805577e-10,1696622996631697539,
0.018601715564727783,-0.015930891036987305,5.912230418951081e-06,1696622996641778116,
0.03127831220626831,0.03798002004623413,-5.799656756339177e-10,1696622996651732769,
-0.004988133907318115,0.018176376819610596,5.895769826615939e-06,1696622996661841562,
0.020222842693328857,-0.019513368606567383,6.024941065639024e-06,1696622996671733728,
-0.02114492654800415,-0.005126297473907471,-4.809648189832844e-10,1696622996681756193,
0.016630351543426514,0.01643317937850952,5.9501572747229376e-06,1696622996691772774,
0.002074301242828369,-0.014097750186920166,-3.4922127674547957e-10,1696622996704022310,
-0.019387543201446533,-0.010463476181030273,-5.500112462775935e-10,1696622996711699197,
-0.010577738285064697,-0.003263115882873535,5.903010782406373e-06,1696622996721795850,
0.029117822647094727,-0.008584737777709961,-3.748197772877683e-10,1696622996731737759,
0.007514655590057373,0.011196315288543701,-3.621061661864705e-10,1696622996741739981,
-0.0055350661277771,0.029091477394104004,5.946485761757661e-06,1696622996751762909,
0.00019174814224243164,0.034447669982910156,-3.162356206116151e-10,1696622996761756011,
0.005420863628387451,0.009211540222167969,-2.488252804179019e-10,1696622996771739451,
0.0323825478553772,-0.007005035877227783,4.782885868744716e-06,1696622996784201016,
0.019626319408416748,0.0019069910049438477,7.901477557040873e-06,1696622996791744277,
-0.018015265464782715,0.02697145938873291,-1.434533035230279e-10,1696622996801897773,
-0.00931459665298462,0.010678708553314209,-1.221278737546305e-10,1696622996811756485,
0.019706249237060547,-0.010918200016021729,5.951247095880457e-06,1696622996821771806,
-0.013201773166656494,-0.019997596740722656,-8.408688769099725e-11,1696622996831849844,
-0.014555811882019043,-0.007407784461975098,-7.601632263628963e-11,1696622996841856637,
-0.016471922397613525,0.02484428882598877,-4.8362105501514114e-11,1696622996851928004,
-0.00030916929244995117,-0.014708638191223145,-4.972057224228891e-11,1696622996863784001,
-0.016557753086090088,-0.011146843433380127,7.407217865876466e-06,1696622996871830715,
0.010410308837890625,0.021135449409484863,-6.398045549287958e-11,1696622996881873028,
0.006792128086090088,0.019262969493865967,-5.2651668050573054e-11,1696622996892003974,
0.008517682552337646,0.017366886138916016,-6.869618883517074e-11,1696622996901905583,
0.03916960954666138,0.017273426055908203,-2.1650673748643208e-11,1696622996912023486,
0.03717523813247681,0.000994861125946045,6.022032874936831e-06,1696622996921921238,
0.015485405921936035,-0.024212777614593506,2.0684991417048805e-11,1696622996931904489,
0.01530367136001587,-0.015270769596099854,3.534761646188035e-11,1696622996943771405,
-0.011662185192108154,-0.0027167797088623047,8.95236051493542e-11,1696622996951903705,
-0.0012104511260986328,0.007999539375305176,1.016719108440766e-10,1696622996962005382,
-0.024357855319976807,0.007979750633239746,5.937131981992765e-06,1696622996972044856,
0.011249840259552002,-0.02438175678253174,1.0406146826635945e-10,1696622996982002977,
-0.015750646591186523,0.002547740936279297,1.1525487639115735e-10,1696622996991981783,
-0.008556187152862549,-0.004635453224182129,1.2552540407412607e-10,1696622997001964555,
0.002208113670349121,0.03661954402923584,1.2422081166036312e-10,1696622997011993535,
0.016563892364501953,0.025756239891052246,5.065032157148004e-06,1696622997023761629,
-0.015771806240081787,-0.024579942226409912,1.3513757614839593e-10,1696622997031948473,
0.011233508586883545,0.02205216884613037,1.198463798227888e-10,1696622997042045975,
0.007451772689819336,0.007586658000946045,1.0747906120914541e-10,1696622997052090635,
0.012465715408325195,-0.0194208025932312,0.0,1696622997062174896,
0.003244638442993164,-0.0034082531929016113,0.0004532779437207627,1696622997072037301,
-0.016125500202178955,-0.02517223358154297,-0.00016139082003520716,1696622997082007760,
-0.014646410942077637,-0.018103599548339844,0.00038917021298414257,1696622997091963098,
0.0072054266929626465,-0.014443039894104004,0.004706968218955372,1696622997104119642,
0.11803686618804932,0.0036333799362182617,0.02018267389279152,1696622997111963507,
0.2341318130493164,0.11167818307876587,0.03698591502553501,1696622997122153368,
0.7007066011428833,0.26836472749710083,0.088864109521373,1696622997132026698,
1.3229514360427856,0.4484054446220398,0.17037394943865095,1696622997142025693,
1.3026151657104492,0.513382077217102,0.2580530573227446,1696622997152026123,
0.9056205153465271,0.2833399772644043,0.3086687890955076,1696622997162045027,
0.7348342537879944,-0.023526310920715332,0.31639529544353245,1696622997172038570,
0.6877318620681763,-0.05642902851104736,0.25969423414000875,1696622997184091007,
0.693881094455719,0.1927732229232788,0.41035010601671285,1696622997192068517,
0.8610751628875732,0.295667827129364,0.3535903362975251,1696622997202122523,
0.9842854142189026,0.09949254989624023,0.38193013930916897,1696622997212142401,
0.9214624166488647,-0.07314211130142212,0.4033251461235664,1696622997222129183,
0.4598861336708069,-0.0522313117980957,0.4169005145001509,1696622997232163700,
0.12374556064605713,-0.02809375524520874,0.4226465767377994,1696622997242215004,
-0.13874882459640503,-0.10101187229156494,0.4238149606720852,1696622997252252527,
0.15615099668502808,0.014170289039611816,0.3706469184661524,1696622997264100555,
0.6941536068916321,0.5554977059364319,0.5703853906508344,1696622997272404404,
0.5723924040794373,0.4634881615638733,0.5225090165046019,1696622997282426212,
0.2632339596748352,0.35068851709365845,0.573084542357207,1696622997292458000,
0.030402302742004395,0.18853724002838135,0.6174644841361044,1696622997302344465,
0.3752620816230774,0.3424617052078247,0.6932554232299185,1696622997311460795,
0.6368241310119629,0.39756304025650024,0.6539692000773315,1696622997321400762,
0.4475671648979187,0.14323431253433228,0.6158163661727655,1696622997332309353,
0.2232036590576172,-0.32397544384002686,0.583997084164272,1696622997344250550,
0.4321855902671814,-0.38530969619750977,0.893909169902415,1696622997352339101,
0.7065204381942749,0.18972694873809814,0.7220413316990424,1696622997362597811,
0.7298182249069214,0.4078720808029175,0.7557124657619498,1696622997372467260,
0.6687532067298889,0.06234300136566162,0.7635880737467056,1696622997382344911,
0.5391197204589844,-0.1312427520751953,0.77703926211421,1696622997392408635,
0.34189409017562866,0.6001995205879211,0.8105506379059362,1696622997402518023,
0.24862343072891235,1.1630347967147827,0.8484637217818302,1696622997412469184,
0.11375880241394043,0.4363853931427002,0.7560942938241983,1696622997423867652,
0.3165892958641052,-0.30258363485336304,1.0337489654785317,1696622997432447060,
0.5676772594451904,0.4200049042701721,0.9174976191582056,1696622997442485975,
0.3347685933113098,0.6540021300315857,0.9504682291690735,1696622997452543769,
0.6594648957252502,-0.16910570859909058,0.9781286305126909,1696622997462519709,
0.7002939581871033,-0.15970873832702637,0.9835099137079046,1696622997472517955,
0.6520912051200867,0.4506317377090454,0.984061025204627,1696622997482613089,
0.8499852418899536,0.5122646689414978,1.0215390995557638,1696622997492526771,
0.7166723608970642,0.564289391040802,0.8934987429495023,1696622997504079615,
0.11447411775588989,0.28231269121170044,1.2495985786686403,1696622997512574561,
-0.11535274982452393,-0.04445075988769531,1.0972127382644885,1696622997522626985,
-0.15184521675109863,0.37636619806289673,1.1293012861094267,1696622997532665558,
0.6322091221809387,0.4966912865638733,1.1475949412641135,1696622997542575192,
0.8618767261505127,-0.2277529239654541,1.1237369982163832,1696622997552614847,
0.12266457080841064,0.14844876527786255,1.1168245138026984,1696622997562677017,
-0.3048219680786133,0.555242657661438,1.1290931600306158,1696622997572637510,
0.03429257869720459,0.6614788770675659,0.9953078284226584,1696622997583836363,
0.1061127781867981,0.45875048637390137,1.2441616215192621,1696622997592676500,
0.3635808229446411,-0.14333873987197876,1.1004330281167096,1696622997602685831,
0.627102255821228,0.15964531898498535,1.1048165775710626,1696622997612761608,
0.2092800736427307,0.5730345845222473,1.129717190343694,1696622997622723406,
-0.46479856967926025,0.3864619731903076,1.136052505942721,1696622997632719467,
-0.22165310382843018,0.2785857319831848,1.1298616777021036,1696622997642754886,
-0.37408971786499023,0.017955303192138672,1.136502007612606,1696622997652742016,
-0.33887678384780884,0.3719809651374817,1.0850761642127675,1696622997663267684,
-0.21178865432739258,0.7542405724525452,1.1932773579132607,1696622997672775889,
-0.23540109395980835,0.1343327760696411,1.0955359061791532,1696622997683057848,
-0.059651315212249756,0.30249375104904175,1.146311576635795,1696622997692858020,
-0.23085135221481323,0.10827714204788208,1.1298364746690235,1696622997702818228,
-0.4628303050994873,0.14593195915222168,1.1368489343257815,1696622997712849062,
-0.24360889196395874,0.6551051139831543,1.1518956033818761,1696622997722883736,
0.05154824256896973,0.06688302755355835,1.1693511713805753,1696622997732849721,
0.5992534160614014,-0.039700865745544434,1.0684995173328138,1696622997743809951,
0.2656305432319641,0.47784680128097534,1.2756232713746525,1696622997752889170,
-0.26959604024887085,0.2698461413383484,1.1419327470216754,1696622997762909257,
-0.28634679317474365,0.9004355669021606,1.1245775009862895,1696622997773008223,
-0.4168829321861267,0.3513868451118469,1.1472552691903368,1696622997782906118,
0.3978313207626343,-0.061715662479400635,1.1479095971818318,1696622997792951696,
0.41056835651397705,0.5021212697029114,1.1494583556814912,1696622997803025126,
0.09839856624603271,-0.0782400369644165,1.15562479852641,1696622997812971594,
-0.24691998958587646,0.25239741802215576,1.0250887874624444,1696622997824128419,
-0.6871428489685059,0.34380751848220825,1.27535032430759,1696622997833020928,
-0.22176337242126465,0.04106438159942627,1.1273720516057628,1696622997843024580,
-0.2314852476119995,1.1040235757827759,0.8974542406304667,1696622997855585349,
0.5812715291976929,0.361738920211792,1.511151593339921,1696622997863107574,
0.7524646520614624,0.07921111583709717,1.163549934212168,1696622997873087176,
-0.02704101800918579,0.3934374451637268,1.160203394023155,1696622997883200905,
-0.1798192858695984,-0.06556010246276855,1.1822325242848346,1696622997893122215,
-0.6477454304695129,0.6136507391929626,1.0888371657798246,1696622997903869557,
-0.5743095874786377,0.4237382411956787,1.253017660315318,1696622997913149907,
-0.3020296096801758,-0.2860864996910095,1.132801078036853,1696622997923437289,
0.012821733951568604,0.4535413980484009,0.9275384331713751,1696622997936001306,
0.2090417742729187,0.14882230758666992,1.625452661033345,1696622997943167589,
-0.33642154932022095,0.2976951003074646,1.1683866459616248,1696622997953214319,
-0.3750624656677246,0.617537260055542,1.1737131772846972,1696622997963257205,
-0.5386499762535095,0.1166420578956604,1.318995524763803,1696622997972265486,
0.10621649026870728,0.7723000645637512,0.991248615975178,1696622997984327928,
0.4216017723083496,0.21484243869781494,1.502101679987066,1696622997992284664,
-0.43301695585250854,-0.10433238744735718,1.0617111365031136,1696622998003483179,
0.6259093284606934,0.6260432600975037,0.9524898296309547,1696622998015707306,
0.06837636232376099,-0.01260441541671753,1.5026863917600581,1696622998023306452,
-0.11197853088378906,0.3941664695739746,1.1273183580980168,1696622998033374622,
-0.03947407007217407,0.39028286933898926,1.1307020730240827,1696622998043421940,
-0.3357889652252197,0.02187424898147583,1.1423500109170086,1696622998053391264,
0.00041753053665161133,0.6392164826393127,1.0763375339054106,1696622998063945965,
-0.40125155448913574,-0.012458503246307373,1.1989508405745035,1696622998073398973,
-0.06661385297775269,0.17236578464508057,1.1421844075798728,1696622998083382840,
-0.645317018032074,0.36475735902786255,1.0056641481612008,1696622998094787191,
-0.34663885831832886,0.3271405100822449,1.5074256645669852,1696622998102422967,
0.4275561571121216,0.8624693751335144,1.0476140123845723,1696622998113450486,
0.5221412181854248,0.3113059997558594,1.140975732091428,1696622998123543001,
0.4140129089355469,0.15507304668426514,1.1505217520867297,1696622998133516492,
-0.3602604866027832,0.3985061049461365,1.1021905747041572,1696622998143839866,
-0.32760685682296753,0.36283034086227417,1.1501806807888924,1696622998153634957,
-0.6340382099151611,0.49879634380340576,1.1265704880525453,1696622998163601460,
-0.3934805393218994,0.21344220638275146,0.8994893801552658,1696622998176161175,
0.38770633935928345,0.3571118116378784,1.5052456787842754,1696622998183783629,
0.05956310033798218,0.562563955783844,1.1679298157206397,1696622998193722741,
-0.1318320631980896,0.4234311580657959,1.170206868867775,1696622998203682037,
-0.45163869857788086,0.2673749327659607,1.1599482855759926,1696622998213732896,
-0.5675045251846313,-0.056210100650787354,1.1147365302338068,1696622998224209036,
-0.05350208282470703,0.5744365453720093,1.2384700200855017,1696622998233642880,
-0.05270332098007202,0.49662530422210693,1.1660664014146442,1696622998243639644,
0.3004997968673706,0.04950052499771118,0.9554184360085166,1696622998255767392,
0.07685893774032593,0.3249872326850891,1.4610099874385538,1696622998263665865,
-0.15579134225845337,0.21697252988815308,1.1405178161204137,1696622998273698316,
0.14900857210159302,0.6937000751495361,1.128807477374032,1696622998283758128,
0.0013857483863830566,0.6080687642097473,1.1357599955385902,1696622998293704600,
-0.18666470050811768,-0.03924030065536499,1.0703603674726956,1696622998304310097,
-0.1708354949951172,0.2827047109603882,1.2187683052686353,1696622998313736174,
-0.23505103588104248,0.20008093118667603,1.1527768239713545,1696622998323728020,
-0.017288148403167725,0.018340766429901123,0.931443510360345,1696622998336157386,
0.014958500862121582,0.3884827494621277,1.5241292214694075,1696622998343747660,
-0.20841652154922485,-0.09325981140136719,1.1481912910788916,1696622998353777467,
-0.01670151948928833,0.8783473968505859,1.1433922110682742,1696622998363877352,
0.2216091752052307,0.8142184019088745,1.1667047892816098,1696622998373798408,
0.024868309497833252,0.09812796115875244,1.233537163586936,1696622998383258959,
0.02524399757385254,0.44762343168258667,1.1164646078001468,1696622998393821200,
-0.13918036222457886,0.08580619096755981,1.1764532634743496,1696622998403848100,
-0.11364513635635376,0.3298444151878357,0.9596295194401657,1696622998416084091,
-0.2559083104133606,0.5916515588760376,1.4922031167508507,1696622998423866334,
-0.497611939907074,-0.15359610319137573,1.1488530866753792,1696622998433889607,
-0.0009928345680236816,0.48596733808517456,1.1463807172072715,1696622998443994869,
0.012939631938934326,0.4289281368255615,1.1713789546418343,1696622998453920467,
0.33273547887802124,-0.006866633892059326,1.1568948471222773,1696622998464026109,
0.31427639722824097,0.617851734161377,1.184205526551273,1696622998473944737,
-0.3047913908958435,0.12161928415298462,1.1693080216424054,1696622998483924903,
-0.6430293321609497,0.5132358074188232,1.1442957539442606,1696622998504236882,
-0.26618725061416626,-0.27367186546325684,1.1859568384662833,1696622998514001502,
0.4118002653121948,0.615761399269104,1.153766805339189,1696622998524097916,
0.42589592933654785,0.37014174461364746,1.1651775106970883,1696622998534036537,
0.06368237733840942,0.11838334798812866,1.1457208704604296,1696622998544042331,
-0.4984518885612488,0.6083464026451111,1.1330593048320732,1696622998554075290,
-0.5135118961334229,0.23897969722747803,1.2322917005341794,1696622998563266428,
-0.575314462184906,0.7160496711730957,0.9187160405260085,1696622998575707546,
-0.2362995147705078,0.28409963846206665,1.3672542335161841,1696622998584113409,
0.7578679323196411,-0.40151774883270264,1.1522616676832609,1696622998594157263,
0.433590829372406,0.28260016441345215,1.1564053382588877,1696622998614213223,
-0.5881977677345276,0.5827240943908691,1.1038078342194466,1696622998624571063,
-0.5881773829460144,0.8033432960510254,1.1802135026217098,1696622998634188567,
-0.2820446491241455,0.13299649953842163,1.1258196272514267,1696622998644227098,
0.2940499186515808,0.2897840142250061,0.9887592182402072,1696622998655765017,
0.7380546927452087,0.3406960368156433,1.3696069087369804,1696622998664247204,
0.08968961238861084,0.22431421279907227,1.3047946281459863,1696622998673271819,
-0.5474663376808167,0.28791719675064087,0.8771553642127639,1696622998686720813,
-0.573865532875061,-0.09366649389266968,1.5556477567521,1696622998694311296,
-0.5838898420333862,0.521657407283783,1.1730129734262305,1696622998704350516,
0.07339346408843994,0.7701353430747986,1.1467096843157836,1696622998714435246,
0.6316916346549988,0.14038819074630737,1.145632749581171,1696622998724337690,
0.4638938903808594,0.35076314210891724,0.9897702415603707,1696622998735794610,
0.02370619773864746,0.2993348240852356,1.3371551010039495,1696622998744367197,
-0.3958185315132141,0.3065435290336609,1.1435419652839065,1696622998754494703,
-0.4678371548652649,0.5296780467033386,1.019283507660417,1696622998765891478,
-0.3953079581260681,0.03774744272232056,1.3653400366339166,1696622998774415125,
0.5315465927124023,0.333331823348999,1.2935288080874756,1696622998783478589,
0.47400563955307007,0.5183244347572327,1.0694849102156252,1696622998794494602,
0.033201515674591064,0.17273885011672974,1.3106481119639548,1696622998803463791,
-0.15582025051116943,0.4964408278465271,0.9615979103405677,1696622998815605611,
-0.4294896721839905,0.08469295501708984,1.3096898373862393,1696622998824479973,
-0.3566175699234009,0.5308396220207214,1.150218494000707,1696622998834546877,
-0.309242308139801,0.7370138168334961,0.9064709071928653,1696622998847250164,
-0.06832337379455566,-0.0785590410232544,1.5833174136662647,1696622998854525445,
0.12320750951766968,0.10785239934921265,1.149916557222961,1696622998864608346,
-0.3847516179084778,0.01056373119354248,1.1627509050323048,1696622998874641072,
-0.17940634489059448,0.35360056161880493,1.1723470862591192,1696622998884583220,
-0.3506314754486084,0.8822339773178101,1.0200317362164846,1696622998895887416,
-0.17181235551834106,0.06683802604675293,1.3195948132191044,1696622998904597104,
0.09001296758651733,0.33392632007598877,1.153773717186142,1696622998914636894,
-0.05568498373031616,0.40433382987976074,1.170613844592636,1696622998934702319,
0.09630978107452393,0.47642266750335693,1.176856583496893,1696622998944690252,
0.07669544219970703,-0.12758803367614746,1.167549711589332,1696622998954726359,
0.3508102297782898,0.1894732117652893,1.1752433258525221,1696622998964717405,
-0.26239871978759766,0.8644516468048096,1.0504906963405989,1696622998975811158,
-0.15488213300704956,0.2481694221496582,1.3061650566878713,1696622998984711702,
-0.08969026803970337,0.3699294924736023,1.164863262288837,1696622998994751983,
0.826926052570343,0.21763962507247925,1.1853885214038293,1696622999014792193,
0.3880242705345154,0.598893404006958,1.1772978155841747,1696622999024775416,
-0.27183371782302856,-0.32985860109329224,1.1574937242614332,1696622999034810445,
-0.510209321975708,0.518254816532135,1.1563147805201124,1696622999044774642,
-0.34624236822128296,1.1055468320846558,1.0064855634385081,1696622999056142459,
0.14154815673828125,0.3383837342262268,1.3072775312928113,1696622999064904418,
0.2687322497367859,0.3178481459617615,1.1230136127438113,1696622999075107235,
0.42287325859069824,-0.3158344030380249,0.9189851268636602,1696622999087644796,
-0.3418824076652527,0.08290815353393555,1.5755689856359425,1696622999094983945,
-0.5651047825813293,0.04204916954040527,1.1015388855645063,1696622999105446346,
-0.5605660080909729,0.14661675691604614,1.2050590053808625,1696622999115031874,
-0.30805784463882446,0.26964271068573,1.1493792077095457,1696622999125097608,
-0.23629361391067505,0.48649489879608154,1.0367538609453852,1696622999136246162,
0.26420485973358154,0.9383280873298645,1.3280651664355492,1696622999144909511,
0.2102212905883789,0.17763090133666992,1.130435563947438,1696622999154954898,
-0.4222237467765808,0.2795208692550659,0.890204359391041,1696622999167657584,
-0.3569009304046631,0.49879246950149536,1.5549338810320203,1696622999174973943,
-0.5279815793037415,0.21326333284378052,1.1441737951053013,1696622999185019104,
-0.03495311737060547,0.2585413455963135,1.164501052175158,1696622999195034933,
0.7603482604026794,-0.051674842834472656,1.1792581507882516,1696622999205020445,
0.4288005828857422,-0.05171686410903931,1.0825726188377403,1696622999215934120,
0.010311603546142578,0.8808802366256714,1.2924554243752986,1696622999225021792,
-0.5318847894668579,0.60051029920578,1.1414649748818322,1696622999235166595,
-0.06458008289337158,0.6264806985855103,0.917799071666267,1696622999247677725,
0.23494577407836914,0.12702858448028564,1.5424425091077958,1696622999255104589,
0.21774864196777344,-0.249972403049469,1.136462878753544,1696622999265210282,
0.009947061538696289,0.6829944252967834,1.1522442455265094,1696622999275209686,
-0.3600161075592041,0.33832675218582153,1.150977610893022,1696622999285151052,
-0.27726298570632935,0.26151472330093384,1.0528876864708416,1696622999295907023,
-0.5550838708877563,0.3874250054359436,1.2225746668280175,1696622999305170145,
0.32513612508773804,0.12167859077453613,1.0920139718956947,1696622999315632477,
0.5485021471977234,0.5306318998336792,0.9220053376974358,1696622999328156383,
0.19408637285232544,0.12322813272476196,1.634352824850926,1696622999335234542,
-0.013286352157592773,0.028861641883850098,1.1342291905732886,1696622999345448417,
-0.3944547176361084,0.7465266585350037,1.174208925041504,1696622999355315320,
-0.22274577617645264,0.3350462317466736,1.286177958134956,1696622999364268421,
-0.37281692028045654,0.4699323773384094,0.9640142279228853,1696622999376212848,
-0.3829296827316284,0.24030256271362305,1.2583517741609271,1696622999385321577,
0.1014973521232605,-0.032413363456726074,1.1340929395853934,1696622999395392230,
0.17337769269943237,1.0552295446395874,0.9313279663007217,1696622999407656281,
0.26317375898361206,0.3211485743522644,1.47273795402867,1696622999415387814,
-0.1314457654953003,0.06478995084762573,1.1205626529496207,1696622999425590172,
-0.4069859981536865,0.45254480838775635,1.165829724134415,1696622999435494571,
-0.18980908393859863,0.1662117838859558,1.1783481898669788,1696622999445384587,
-0.4130457639694214,0.5892236232757568,1.0449528502593766,1696622999456568758,
-0.046678006649017334,0.27835822105407715,1.3098541049277697,1696622999465415802,
0.34863758087158203,-0.06430387496948242,1.1565697135492836,1696622999475457617,
0.21465295553207397,0.8487703800201416,0.9550159550962226,1696622999487666815,
0.0298154354095459,0.29883843660354614,1.7001569715249443,1696622999494519389,
-0.2474806308746338,0.3067586421966553,1.1800933950979595,1696622999504493822,
-0.3413790464401245,0.4049156904220581,1.06736452701932,1696622999515591216,
-0.2101408839225769,-0.16694903373718262,1.3399358539573034,1696622999524491020,
0.14892303943634033,0.857154130935669,1.0552791396316423,1696622999535852471,
-0.18074548244476318,0.00037556886672973633,1.2335403179435227,1696622999545536973,
-0.032238662242889404,-0.07356375455856323,1.1708616877063005,1696622999555685985,
-0.10811889171600342,0.8344237804412842,0.9775451365873118,1696622999567760330,
-0.2207239270210266,0.38024085760116577,1.490758809935815,1696622999575631259,
0.15561193227767944,0.635983407497406,1.1482157401732453,1696622999585808956,
-0.03313082456588745,0.052502334117889404,1.176777367993547,1696622999595693573,
0.0433192253112793,0.019137322902679443,1.1677895457320175,1696622999605677753,
-0.044861793518066406,0.7679271101951599,1.1047201696816296,1696622999616193476,
-0.1636512279510498,0.2815511226654053,1.2132704061862376,1696622999625658356,
-0.09346568584442139,0.038971006870269775,1.1326550325458837,1696622999635755753,
-0.31685101985931396,0.28839772939682007,0.9027846080300068,1696622999648381882,
-0.2850147485733032,0.23894929885864258,1.5558307258949953,1696622999655705045,
0.14778411388397217,0.7751231789588928,1.1099263142572624,1696622999665965236,
0.27367711067199707,0.17883557081222534,1.1505171717979386,1696622999675826048,
0.22644925117492676,0.006816506385803223,1.1528259000523107,1696622999685726468,
0.12846285104751587,0.6344265341758728,1.1284494096613198,1696622999695900923,
-0.5214709043502808,0.6331462860107422,1.1700672436284703,1696622999705771774,
-0.6242544054985046,0.5260605812072754,1.1494258742624688,1696622999715878636,
-0.44977790117263794,-0.09705257415771484,0.9569788160306036,1696622999728035374,
0.1840187907218933,-0.17159497737884521,1.5018417659420111,1696622999735808125,
0.3421016335487366,0.6738246083259583,1.1577786982145062,1696622999745848173,
0.4708385467529297,0.5591651201248169,1.1352312321938964,1696622999755956805,
-0.10081958770751953,0.25807952880859375,1.1379833841948186,1696622999765968168,
-0.36342698335647583,0.3287481665611267,1.097369964967688,1696622999776351358,
-0.32564276456832886,0.19228607416152954,1.2078591074568195,1696622999785915077,
-0.42049235105514526,0.7227706909179688,1.1666164792471656,1696622999795934808,
-0.11241805553436279,0.37206947803497314,1.004271632035991,1696622999807660049,
0.3915925621986389,-0.2860931158065796,1.4201960830221902,1696622999815987206,
0.6793710589408875,0.4824889898300171,1.1846745020309994,1696622999825955535,
-0.06613785028457642,0.514016330242157,1.1720762433037886,1696622999836049239,
-0.48090648651123047,0.7169046998023987,1.1938075151660938,1696622999845940069,
-0.6159251928329468,0.43253493309020996,1.1717382885436705,1696622999856012656,
-0.6175057291984558,-0.18912434577941895,1.1687295952628631,1696622999866185591,
0.08625984191894531,0.5443019866943359,1.1376989058070255,1696622999876724006,
0.6975590586662292,0.354597270488739,1.1041433292518505,1696622999887713171,
0.3585936427116394,0.28084778785705566,1.346520880105725,1696622999896747472,
-0.5093311071395874,0.31544923782348633,1.1842282059465938,1696622999906882831,
-0.5239956974983215,-0.11473625898361206,1.2836107574074342,1696622999916166615,
-0.19511383771896362,1.3107788562774658,1.1184661679717316,1696622999926728926,
0.619013786315918,0.9355015158653259,1.1652344113384256,1696622999936803029,
0.6451680660247803,-0.3392852544784546,1.181655450312036,1696622999946804823,
0.4715390205383301,0.09899342060089111,1.1688038927419717,1696622999956935292,
-0.2730832099914551,-0.015303492546081543,1.0560984559870015,1696622999968133961,
-0.13893020153045654,0.4980493187904358,1.3431048012713303,1696622999976830994,
-0.4222586154937744,0.4092785716056824,1.1210134754501477,1696622999987088740,
-0.2768549919128418,-0.37743645906448364,0.9790923954902963,1696622999998773870,
0.41430675983428955,0.43133479356765747,1.40550698365329,1696623000006850462,
-0.14317935705184937,0.3461807370185852,1.1092885562594463,1696623000017036510,
-0.5033426284790039,0.5937233567237854,1.1287417586790647,1696623000026997674,
-0.6216244697570801,-0.05191105604171753,1.1175867351685465,1696623000036984483,
-0.12411344051361084,0.6058375835418701,1.0468636078759206,1696623000047692356,
0.127105712890625,0.42448580265045166,1.2455288280915162,1696623000056817040,
0.5004163980484009,-0.12429934740066528,1.1457523804420053,1696623000066825303,
-0.1731092929840088,0.7401471138000488,0.9818727030529831,1696623000078717129,
0.016923129558563232,0.4976734519004822,1.4364526219136147,1696623000086831582,
0.04836040735244751,0.3519037365913391,1.1464233062380855,1696623000096903665,
-0.27406156063079834,0.5684646964073181,1.154192184282339,1696623000106830477,
0.05350208282470703,0.03297168016433716,1.1189650963626572,1696623000117102414,
-0.06443363428115845,0.34773266315460205,1.0910494676968445,1696623000127734642,
0.022137820720672607,0.30896133184432983,1.278253962665659,1696623000136868098,
-0.205280601978302,-0.10204178094863892,1.169487781738049,1696623000146923495,
-0.20788991451263428,0.3147398829460144,1.0633336978445531,1696623000157930250,
0.021697044372558594,0.2388296127319336,1.293763964692897,1696623000166881440,
0.12061053514480591,0.6465553045272827,1.131513415368681,1696623000176889787,
-0.026239097118377686,0.7516165375709534,1.1104869378739517,1696623000186913201,
0.19965839385986328,0.028841912746429443,1.1108237525696179,1696623000196904281,
-0.08631670475006104,0.3948301076889038,1.0391868718230501,1696623000207815310,
-0.05424356460571289,0.2999790906906128,1.2680823508368604,1696623000216879848,
0.03503084182739258,0.02367997169494629,1.1470226206340053,1696623000226947227,
-0.1852196455001831,0.38085466623306274,0.9171322410754451,1696623000239453171,
-0.29834091663360596,0.1640053391456604,1.53606926206437,1696623000246884094,
-0.37728261947631836,0.5322364568710327,1.12679164970823,1696623000256943850,
0.030398190021514893,0.5949311256408691,1.1367638581790325,1696623000266894120,
0.44210320711135864,0.12912416458129883,1.1337966268254565,1696623000276883308,
0.5364710688591003,0.46202075481414795,0.9840226614864583,1696623000288500027,
0.0026990175247192383,0.1617339849472046,1.3706115730460346,1696623000296918018,
-0.29099035263061523,0.07386523485183716,1.1526325068795535,1696623000306915294,
-0.06583106517791748,0.5323421955108643,0.9185261154354935,1696623000319372924,
-0.3816460371017456,0.3118688464164734,1.507495223764562,1696623000326924453,
0.07992321252822876,0.5515562891960144,1.1248945633972416,1696623000336958991,
-0.11846309900283813,0.31829965114593506,1.1096708005601201,1696623000347024837,
0.2433142066001892,0.012912929058074951,1.1109861936499463,1696623000357046342,
0.1972421407699585,0.6211735010147095,1.0484929148945095,1696623000367710650,
-0.2837006449699402,0.18812787532806396,1.2064816432328955,1696623000376992704,
-0.2995961904525757,0.2281457781791687,1.1259096866456517,1696623000387026498,
-0.42416632175445557,0.4420164227485657,0.8599269313969096,1696623000400255725,
-0.011516034603118896,-0.07694041728973389,1.7082504417624267,1696623000407029640,
0.5381261110305786,0.48988813161849976,1.1679777686223936,1696623000417079305,
0.0812685489654541,0.2513886094093323,1.184896950918042,1696623000427051957,
0.03871893882751465,0.10190582275390625,1.1803095045267,1696623000437020725,
-0.5215384364128113,1.1591401100158691,1.0896676549955553,1696623000447750212,
-0.40203922986984253,0.35107481479644775,1.2377474651450884,1696623000457101004,
0.34713613986968994,0.4030914902687073,1.1682967618940936,1696623000467121354,
0.36884820461273193,0.2777790427207947,0.9139070387190702,1696623000480155672,
0.1695956587791443,-0.14078110456466675,1.7466851159199412,1696623000487068917,
-0.08341240882873535,0.5099745392799377,1.1955979653372493,1696623000497149458,
-0.4248623847961426,0.213706374168396,1.1773285802068392,1696623000507176275,
-0.3989575505256653,0.30349212884902954,1.1778400002061475,1696623000517151901,
-0.6182330250740051,0.8296005725860596,1.1043562861919087,1696623000527731252,
0.43711698055267334,-0.24490070343017578,1.2240483940298543,1696623000537153808,
0.6748397350311279,0.2866586446762085,1.157454904248057,1696623000547144861,
0.2831151485443115,0.4916455149650574,0.8982719627537633,1696623000559989999,
-0.10315722227096558,0.1187170147895813,1.5979632708174416,1696623000567143975,
-0.5638488531112671,0.703734278678894,1.1254039534489666,1696623000577206175,
-0.6845139265060425,0.030380189418792725,1.2443818877063824,1696623000586272129,
-0.6063092947006226,0.40261274576187134,1.0333779281631676,1696623000597153905,
0.040599524974823,0.7080126404762268,1.0225949331964592,1696623000608139452,
0.9978416562080383,-0.08098679780960083,1.243790294059993,1696623000617176396,
0.2469167709350586,0.3090858459472656,1.1293360439927558,1696623000627169132,
-0.03748464584350586,0.2329866886138916,0.872377567427228,1696623000640148160,
-0.6312204599380493,0.3036537170410156,1.6263920363941997,1696623000647189335,
-0.6619889140129089,0.8265817165374756,1.1453932610613287,1696623000657232190,
0.21875423192977905,0.06952089071273804,1.1459530605604171,1696623000667310676,
-0.08658736944198608,-0.27226191759109497,1.1913699808730325,1696623000677190354,
0.5932726860046387,0.4888712167739868,1.1291920890662253,1696623000687714452,
0.20054322481155396,0.3825889229774475,1.2350363900343302,1696623000697233301,
-0.07110989093780518,0.7370120286941528,1.1454462330277557,1696623000707236949,
-0.08468085527420044,0.26704323291778564,0.89740593798663,1696623000719751574,
-0.30408966541290283,0.1057247519493103,1.7154804268349286,1696623000726300550,
0.44593679904937744,0.7447599768638611,1.0335996374088408,1696623000737304750,
-0.07758951187133789,0.10022133588790894,1.1407674583355274,1696623000747362697,
0.07264095544815063,0.2990701198577881,1.1494678346710554,1696623000757353019,
-0.2442948818206787,0.06091451644897461,1.096729192031885,1696623000767761388,
-0.1424228549003601,0.02611410617828369,1.1833284979529277,1696623000777354502,
0.04547286033630371,0.9816463589668274,1.126475591073786,1696623000787380198,
-0.0684770941734314,0.6205667853355408,0.8753167947464642,1696623000800163127,
0.6270158290863037,0.14763402938842773,1.545385663708086,1696623000807396808,
-0.11311870813369751,-0.01862466335296631,1.0891473789622266,1696623000817669263,
-0.17309147119522095,0.09307801723480225,1.150077825372077,1696623000827415108,
-0.4194086790084839,0.5475443005561829,1.1072159771074364,1696623000837474971,
-0.5526577234268188,0.3556651473045349,1.0401306605718745,1696623000848107154,
0.1689276099205017,-0.11565524339675903,1.1931420714740504,1696623000857477404,
0.13371014595031738,0.3460886478424072,1.1312971787130903,1696623000867548366,
0.09258198738098145,0.4267054796218872,0.9436149267621698,1696623000879763783,
-0.14922207593917847,0.5156199932098389,1.4772617150880811,1696623000887538075,
-0.33034634590148926,0.3119792342185974,1.1354160200418133,1696623000897610084,
-0.2981853485107422,-0.1388031244277954,1.1494985330131517,1696623000907646754,
-0.1590796709060669,0.7072185277938843,1.1641367510186527,1696623000917657174,
0.034574031829833984,0.06177777051925659,1.1169369782656764,1696623000928171582,
-0.02863144874572754,0.29029566049575806,1.2296728774515229,1696623000937779144,
0.2928396463394165,0.038726866245269775,1.1950648455505857,1696623000947669956,
0.3638870120048523,0.941733181476593,0.9527030947377723,1696623000960076108,
-0.00042945146560668945,0.6913667917251587,1.5330959718139952,1696623000967672684,
-0.16398245096206665,-0.24243324995040894,1.153611290155462,1696623000977684227,
-0.12898075580596924,0.3380458354949951,1.1511473113050452,1696623000987726915,
-0.1729556918144226,0.36022526025772095,1.1641714437016655,1696623000997716997,
-0.07040739059448242,0.33405476808547974,1.17555576918012,1696623001007752979,
0.3090934753417969,0.2677457332611084,1.1914210993913052,1696623001017730970,
0.365874707698822,-0.3007360100746155,1.1784842571227145,1696623001027742823,
0.18584173917770386,0.5279801487922668,0.9507271163718704,1696623001040049242,
-0.3719121813774109,0.7187513113021851,1.4909565693057805,1696623001047778184,
-0.6969494819641113,0.18563133478164673,1.1217779769409626,1696623001057986207,
-0.23574507236480713,0.5859485268592834,1.155616477836614,1696623001067923253,
-0.3418583869934082,-0.11024212837219238,1.1667189010137162,1696623001077805713,
0.5866755843162537,0.27283620834350586,1.1701474931681077,1696623001087810213,
0.6082371473312378,0.6641525030136108,1.1769096252786415,1696623001097850559,
-0.318634033203125,-0.12402951717376709,1.1735732769504408,1696623001107863549,
-0.40415745973587036,0.6484887003898621,0.9548103270466692,1696623001120185979,
-0.5180204510688782,0.5611858367919922,1.516698756442248,1696623001127867598,
0.14526736736297607,0.36601972579956055,1.1637781051329616,1696623001137919124,
0.5482129454612732,0.3959888219833374,1.167975685643498,1696623001148007401,
0.20357048511505127,-0.18061643838882446,1.185087582852834,1696623001157935274,
0.03829681873321533,0.35017430782318115,1.1660110056818607,1696623001167973704,
-0.5100929737091064,0.574325680732727,1.1652115576747204,1696623001177921932,
-0.563951849937439,-0.06443917751312256,1.1529181407658677,1696623001187924856,
-0.31693971157073975,0.3658686876296997,0.9682896024242645,1696623001199901942,
0.2375362515449524,-0.005359828472137451,1.441221639083595,1696623001207949466,
0.768124520778656,0.33891499042510986,1.1513282030316698,1696623001218039381,
0.30140721797943115,0.9138738512992859,1.1568364012142418,1696623001228079129,
-0.16642755270004272,0.2750958800315857,1.1595102609739238,1696623001238020432,
-0.48031795024871826,0.5082557797431946,1.1278459079926006,1696623001248216720,
-0.5626989006996155,0.44315242767333984,1.1734029576685217,1696623001258045093,
0.12847399711608887,0.289902925491333,1.1452743519956377,1696623001268206467,
0.7227360606193542,0.24917984008789062,1.0088152961838937,1696623001279811043,
0.4682174324989319,-0.17980605363845825,1.3985521649002566,1696623001288063948,
-0.27555030584335327,0.13090944290161133,1.1275359052611695,1696623001298122493,
-0.17890620231628418,0.5301749110221863,1.1069803132461458,1696623001308196144,
-0.3664582371711731,0.4432615041732788,1.1091069474427748,1696623001318147137,
-0.2654779553413391,0.4247714877128601,1.103108492853195,1696623001328165254,
0.24507182836532593,-0.14456677436828613,1.0972411750758668,1696623001338324412,
0.13674646615982056,-0.12222760915756226,1.1552164621824226,1696623001348159971,
-0.13727319240570068,0.781630277633667,0.9883824765248896,1696623001359800854,
-0.14585942029953003,0.312164306640625,1.3662926662336015,1696623001368190821,
-0.4354383945465088,0.22683203220367432,1.1343559789319426,1696623001378229877,
-0.4469844698905945,0.34842830896377563,0.9047110329268039,1696623001390794829,
0.052500784397125244,0.3379020094871521,1.5430071639195786,1696623001398231940,
-0.04631781578063965,0.7991745471954346,1.1590108217157722,1696623001408316913,
0.24766665697097778,0.2405758500099182,1.1927498250391264,1696623001418314748,
0.11687701940536499,-0.03155916929244995,1.3460069717889247,1696623001427273063,
0.16964536905288696,0.42073994874954224,0.9239298285238157,1696623001440197261,
0.14663153886795044,-0.02271062135696411,1.4422209518552505,1696623001448333342,
-0.015011370182037354,0.4960821270942688,1.1220750621451199,1696623001458634563,
-0.4505700469017029,0.2282126545906067,0.936830788393325,1696623001470864376,
-0.288719117641449,-0.0549963116645813,1.5170100893397631,1696623001478399620,
0.1702691912651062,0.9533510804176331,1.1346118047332192,1696623001488423138,
0.27068036794662476,0.0830085277557373,1.1382199451723543,1696623001498395965,
0.5271478891372681,0.1618727445602417,1.1343746565609554,1696623001508444711,
0.018174290657043457,0.4385162591934204,0.9712161297945536,1696623001520165163,
-0.3286742568016052,0.24511635303497314,1.3744429219650092,1696623001528439995,
-0.13558244705200195,0.7980557680130005,1.0926991433993096,1696623001538809498,
0.21016371250152588,0.025960028171539307,1.1393669655999854,1696623001558735074,
0.037299513816833496,0.6559665203094482,1.1673531084052808,1696623001568568359,
0.20744013786315918,-0.009205400943756104,1.1572730998755798,1696623001578542510,
0.07499116659164429,0.3983953595161438,1.1663936726514081,1696623001588543260,
-0.566643238067627,0.3382291793823242,1.0109367640894245,1696623001600101440,
-0.3474675416946411,-0.15960657596588135,1.5644761131472598,1696623001607628298,
-0.2017909288406372,0.7253554463386536,1.1570576038215865,1696623001617851779,
-0.07160472869873047,-0.0005799531936645508,0.8349309088395247,1696623001632003280,
0.23596489429473877,0.31388646364212036,1.77910316427491,1696623001638632001,
-0.19646769762039185,0.8179435729980469,1.154022712979376,1696623001648689944,
-0.04175138473510742,0.10675549507141113,1.1500032313975284,1696623001658671296,
-0.36292535066604614,0.7520843744277954,1.14261759485198,1696623001668725656,
-0.010251641273498535,0.3203364610671997,1.03899857050098,1696623001679871298,
0.3587898015975952,-0.06452620029449463,1.3326372911732254,1696623001688703869,
0.28845298290252686,0.5029313564300537,1.1676726031040636,1696623001698765631,
0.2553035020828247,-0.1666243076324463,0.8780091251918379,1696623001711989783,
-0.21540617942810059,-0.19827324151992798,1.7007848190956263,1696623001718773274,
-0.3997824788093567,0.46455103158950806,1.1446571767964915,1696623001728756201,
-0.3964146375656128,0.37480926513671875,1.1245664912467044,1696623001738825862,
-0.34909117221832275,0.9159625768661499,1.1165603660352474,1696623001748823903,
0.4392216205596924,0.040223777294158936,0.9710164624091782,1696623001760216342,
0.6488428115844727,-0.18984347581863403,1.2955027674747874,1696623001768830056,
0.38011467456817627,0.5846019983291626,1.1174406774876904,1696623001778889293,
-0.31418168544769287,0.316555917263031,0.8694238967441724,1696623001791803402,
-0.5849099159240723,0.4295731782913208,1.577037456111048,1696623001798898953,
-0.3761565089225769,0.23270142078399658,1.108188519731241,1696623001808982490,
-0.6083872318267822,-0.14650142192840576,1.1314156251307161,1696623001818950394,
0.2116808295249939,0.6260045170783997,1.1369995248911513,1696623001828938619,
0.23804986476898193,0.16104227304458618,1.0154521119273716,1696623001840198031,
-0.08606112003326416,0.1934261918067932,1.282024235702573,1696623001849161566,
-0.6873260736465454,0.14132755994796753,1.176633309400065,1696623001859051050,
-0.18789923191070557,0.8349158763885498,0.9101582756946572,1696623001871821307,
0.0721772313117981,0.31826114654541016,1.6101470834555673,1696623001878994733,
0.16610348224639893,-0.2300061583518982,1.1352847526515253,1696623001889160214,
0.5909978151321411,0.5874518752098083,1.1650971143157112,1696623001899176241,
-0.08128750324249268,0.3042522668838501,1.1901332186698546,1696623001909025936,
-0.19004511833190918,0.4116305112838745,1.0534021646901381,1696623001920056012,
-0.35135096311569214,0.4775410294532776,1.2591331013411864,1696623001929154730,
-0.02810060977935791,-0.04700416326522827,1.1249391064515428,1696623001939245369,
0.13858658075332642,0.6691874265670776,0.8637425638341505,1696623001952430651,
-0.07955938577651978,0.13149189949035645,1.7142686125388997,1696623001959102354,
0.18688416481018066,-0.09874212741851807,1.1470838238715246,1696623001969150669,
-0.4163980484008789,0.224947988986969,1.1692404742573645,1696623001979094559,
-0.19063812494277954,-0.21148157119750977,1.1607997031825932,1696623001989089048,
0.1448492407798767,0.851877748966217,1.0774230408528351,1696623001999822261,
0.28824901580810547,0.6575731635093689,1.2241544840188057,1696623002009169310,
0.39554309844970703,-0.13846033811569214,1.1414407512114848,1696623002019128192,
-0.2627795338630676,0.4926984906196594,0.8794822990679606,1696623002032089514,
-0.2963557243347168,0.306432843208313,1.5984405106044186,1696623002039187911,
-0.5379960536956787,0.2858389616012573,1.129889856818366,1696623002049207460,
-0.2945671081542969,0.5224682688713074,1.109447402128221,1696623002059390479,
0.2089410424232483,-0.2267467975616455,1.1555302256007032,1696623002069232125,
0.2452772855758667,0.567004919052124,1.0137298357160476,1696623002080707890,
0.07647091150283813,0.5365087389945984,1.3778694971931396,1696623002089244063,
-0.13358771800994873,-0.07063639163970947,1.2908796196548298,1696623002098333759,
-0.1710216999053955,0.35806381702423096,0.8454021519830851,1696623002112137394,
-0.07728469371795654,0.028010249137878418,1.601513229570196,1696623002119384427,
0.037945687770843506,0.7136366963386536,1.164618494060346,1696623002129409226,
-0.01793539524078369,0.6570330262184143,1.1657477837760843,1696623002139455503,
-0.0979495644569397,-0.5063490867614746,1.1736763026207933,1696623002149412635,
-0.17687737941741943,0.5101894736289978,1.11236075266028,1696623002159965839,
0.09867596626281738,0.634364902973175,1.2375560128704866,1696623002169443633,
0.3429437279701233,0.2885156273841858,1.1634083426005106,1696623002179470150,
-0.06169247627258301,0.5093526244163513,0.9123859935331666,1696623002192137391,
-0.36244451999664307,-0.35628652572631836,1.558815040008754,1696623002199504290,
-0.4346693158149719,0.5292888283729553,1.1506934847460804,1696623002209522243,
-0.2951066493988037,0.6955054402351379,1.1433244490475827,1696623002219575219,
-0.0418049693107605,-0.43169504404067993,1.160365305661887,1696623002229481199,
0.4061986207962036,0.04532080888748169,1.0891166292418002,1696623002240093211,
0.048127174377441406,0.07685166597366333,1.214711204031543,1696623002249560682,
-0.10862290859222412,0.656642496585846,1.1380034851917664,1696623002259573045,
-0.37432366609573364,0.8764834403991699,0.9613696300202877,1696623002271291285,
-0.35429489612579346,0.0013899803161621094,1.3512723563393612,1696623002279576900,
0.061979055404663086,0.5101826190948486,1.1280763398234088,1696623002289591917,
0.07148957252502441,0.47292429208755493,1.128866631375093,1696623002299699770,
0.4080513119697571,0.10371005535125732,1.158315432315284,1696623002309632088,
-0.11140710115432739,0.3351033329963684,1.129716293121472,1696623002319825173,
-0.6580646634101868,-0.19248700141906738,1.3024184378466497,1696623002328635643,
-0.19130206108093262,0.34105461835861206,1.0459839532587878,1696623002339671496,
-0.07268208265304565,0.8677676916122437,0.9596771808434639,1696623002351782602,
0.5780628323554993,0.24777716398239136,1.4791523492549152,1696623002359719040,
0.5776708126068115,0.36863958835601807,1.188402318020536,1696623002369699348,
-0.04119938611984253,-0.05412912368774414,1.1763667828469346,1696623002379760644,
-0.20600783824920654,0.05120927095413208,1.1751995820950436,1696623002389759554,
-0.68369060754776,0.6177457571029663,1.0768093691696863,1696623002400528547,
-0.4063411355018616,0.23269057273864746,1.2320953323997481,1696623002409820034,
0.2520802617073059,0.29799848794937134,1.1384667761761478,1696623002419822089,
0.5674723982810974,0.29815149307250977,0.9482816959132955,1696623002431838530,
0.4279943108558655,0.12187141180038452,1.4348156476510423,1696623002439839230,
-0.3474442958831787,0.6348645687103271,1.1262859790913131,1696623002450019928,
-0.45051950216293335,0.10867655277252197,1.154734661935234,1696623002459915783,
-0.5982165932655334,0.10114800930023193,1.155933313146018,1696623002469869068,
-0.06726843118667603,0.49802786111831665,1.1489830239258971,1696623002479946239,
0.5828850865364075,0.009993135929107666,1.1710254977447807,1696623002489920248,
0.4622424840927124,0.38767534494400024,1.1543689489795679,1696623002500033753,
-0.15616536140441895,0.0076285600662231445,0.9810495730406821,1696623002511811359,
-0.3580436706542969,0.02627122402191162,1.4108658382594468,1696623002519948772,
-0.4054797291755676,1.2199513912200928,1.1413051721167924,1696623002529945459,
-0.5342026948928833,0.2752946615219116,1.135363769492348,1696623002540055371,
0.07375353574752808,0.31450092792510986,1.1802780027110036,1696623002549978493,
0.2937052845954895,0.3010280728340149,1.1719462490098427,1696623002560150968,
0.14562374353408813,0.08455550670623779,1.2168440754087688,1696623002569987463,
0.03786498308181763,0.6661002039909363,1.1743844815834334,1696623002580010620,
-0.43779265880584717,0.09329605102539062,1.0201616191731302,1696623002591295616,
-0.6022658944129944,0.10026347637176514,1.2846397938328555,1696623002600205880,
-0.03358936309814453,0.6292270421981812,1.1487160860214634,1696623002610071468,
0.38297951221466064,-0.01529836654663086,1.124681724170479,1696623002620160646,
0.4751744866371155,0.34963977336883545,1.1558280239239391,1696623002630078049,
-0.013740360736846924,0.2859167456626892,1.1486012683408755,1696623002640152034,
-0.3470020890235901,-0.04549199342727661,1.1714573452674775,1696623002650103809,
-0.011457264423370361,0.8951722383499146,1.162018536414859,1696623002660109602,
-0.059310853481292725,-0.1714497208595276,0.9897669767698665,1696623002671819671,
0.2629619836807251,0.20703953504562378,1.3821942137996102,1696623002680170225,
0.08752548694610596,0.7473470568656921,1.255723108545376,1696623002689269111,
0.00037544965744018555,0.12293583154678345,1.0418226601967937,1696623002700206243,
-0.23069196939468384,0.5938039422035217,1.2479711099546662,1696623002709372176,
-0.5045956969261169,0.05868929624557495,1.165341832076374,1696623002719305267,
-0.052712857723236084,0.017364919185638428,1.0515779339606908,1696623002730522956,
-0.14435499906539917,0.5620068311691284,1.2117531539894588,1696623002740319524,
0.24713093042373657,-0.07922297716140747,1.006703454440619,1696623002752169545,
-0.3566991090774536,0.6109782457351685,1.4219421749990093,1696623002760550037,
-0.219648540019989,0.2941267490386963,1.189785194251755,1696623002770457993,
-0.287517249584198,0.7310829758644104,1.1720606113907237,1696623002780378965,
0.2583717703819275,-0.004170238971710205,1.13711484521506,1696623002790404219,
0.20551270246505737,0.194055438041687,1.134895960175835,1696623002800340040,
0.17029446363449097,0.6973841190338135,1.1391474917170192,1696623002810308254,
-0.5714709758758545,-0.008956193923950195,1.1462916033828483,1696623002820348461,
-0.3932250738143921,0.08739060163497925,1.013837210001831,1696623002831837047,
-0.08897942304611206,0.06571882963180542,1.3712864204332755,1696623002840362795,
0.500099241733551,-0.18564611673355103,1.1351486202596996,1696623002850596544,
0.5317664742469788,0.7507545948028564,1.1538716476995938,1696623002860457046,
-0.22257179021835327,0.4173293709754944,1.1126481676569546,1696623002870400123,
-0.2436232566833496,0.5398015379905701,1.088703940197671,1696623002880470066,
-0.3471844792366028,0.5140576958656311,1.0999216515625103,1696623002890527278,
-0.031408488750457764,-0.12017905712127686,1.141332487979484,1696623002900439200,
0.4116986393928528,0.3600660562515259,1.0747665635958188,1696623002911292111,
0.2873234152793884,0.12422418594360352,1.2787424402940457,1696623002920505249,
-0.22274214029312134,-0.03246188163757324,1.1673035961845455,1696623002930526482,
-0.6489337086677551,0.6023966073989868,1.1530847380613698,1696623002940573757,
-0.6351636052131653,0.34833693504333496,1.1471341101638364,1696623002950569227,
-0.026580333709716797,0.6215459704399109,1.1394867705622587,1696623002960583472,
0.834052324295044,0.4020417332649231,1.1403105938485238,1696623002970578678,
0.7514117956161499,-0.3117956519126892,1.1401437937835242,1696623002980636078,
-0.07383662462234497,0.46793192625045776,1.007622858799467,1696623002992149721,
-0.5615037679672241,0.2142239809036255,1.3675445564284363,1696623003000636266,
-0.3820649981498718,0.3153337836265564,1.154627328229858,1696623003010662080,
-0.5714640021324158,0.6287296414375305,1.003919770287276,1696623003022124615,
-0.22273528575897217,-0.2053377628326416,1.3404110730138623,1696623003030685051,
0.6940433382987976,0.6057268977165222,1.2723863706063674,1696623003039714820,
0.3586636185646057,0.498584508895874,1.0383643214935916,1696623003050733507,
-0.28907549381256104,-0.037735164165496826,1.143450490241563,1696623003060735122,
-0.5260158181190491,0.5347055196762085,1.0108823339571698,1696623003072064281,
-0.6263853311538696,0.20910292863845825,1.3140454610626295,1696623003080754646,
-0.05107009410858154,0.44327253103256226,1.1431501713781997,1696623003090786251,
0.45231854915618896,0.33742398023605347,1.0044669614562947,1696623003102308302,
0.6382887363433838,-0.2657458186149597,1.346679799262501,1696623003110939271,
0.12052249908447266,0.540816605091095,1.1670894610730431,1696623003120842319,
-0.6785574555397034,0.18511813879013062,1.142873647115623,1696623003130833931,
-0.3631359934806824,0.13722634315490723,1.1394913483567397,1696623003140850573,
-0.22711127996444702,0.8089326620101929,1.0254058037196367,1696623003152022566,
0.17588597536087036,-4.7206878662109375e-05,1.2643926727156332,1696623003161151384,
0.24387502670288086,0.3798883557319641,1.1982304524416487,1696623003170907281,
-0.2560873031616211,0.2876402735710144,0.9409162891047478,1696623003183343244,
-0.5474942922592163,-0.05507099628448486,1.5418303872665275,1696623003190929754,
-0.5773916244506836,0.9053122997283936,1.1596205323272115,1696623003200975143,
0.10012316703796387,0.5386437773704529,1.1343296982405602,1696623003211165473,
0.7089816331863403,0.27300184965133667,1.1726068688871705,1696623003221094400,
0.7635304927825928,0.2488732933998108,1.040392886901761,1696623003232362073,
-0.13707607984542847,-0.08334451913833618,1.3608373500508406,1696623003241000698,
-0.4225619435310364,0.6140694618225098,1.1708805586528896,1696623003251015820,
-0.3426935076713562,0.28490203619003296,0.9077788089350022,1696623003263782234,
-0.7048280835151672,-0.07202023267745972,1.5907843958336287,1696623003271031121,
-0.17939627170562744,0.46784573793411255,1.14591219338172,1696623003281034222,
0.08496290445327759,0.07420092821121216,1.1362527155196518,1696623003291071003,
0.12670981884002686,0.5598659515380859,1.1437729231226519,1696623003301113467,
-0.13729625940322876,0.4208667278289795,1.0400162751101942,1696623003312221936,
-0.3971429467201233,-0.024912893772125244,1.316309316751961,1696623003321097216,
-0.37142425775527954,0.5333541035652161,1.1554000241356222,1696623003331315177,
-0.037793636322021484,0.3097440004348755,0.9358756131335628,1696623003344027326,
0.09069246053695679,0.2261177897453308,1.6753383366070387,1696623003351149462,
0.14494556188583374,0.4405897259712219,1.187364810728184,1696623003361176191,
-0.1518043875694275,-0.062396883964538574,1.1875736225587352,1696623003371147702,
0.04087954759597778,0.47752922773361206,1.1691407454483296,1696623003381159015,
0.2528984546661377,0.47096818685531616,1.0711414749263741,1696623003391910087,
0.30125415325164795,0.07003295421600342,1.228704165660635,1696623003401187536,
-0.014672040939331055,0.4267318844795227,1.1208186856622084,1696623003411360913,
-0.4601712226867676,-0.041186511516571045,0.8805562462780399,1696623003424413599,
-0.40847253799438477,0.281158983707428,1.697476852093225,1696623003431225507,
-0.46380239725112915,0.47727710008621216,1.1204314820011791,1696623003441556195,
0.10610884428024292,-0.06814521551132202,1.3334214916437301,1696623003450264425,
0.6560719609260559,0.49471163749694824,1.1581702485300127,1696623003460281408,
0.029383957386016846,0.2882423400878906,0.9893057437922081,1696623003471879290,
0.19222688674926758,0.6894567608833313,1.2088866295297196,1696623003481308441,
-0.8620374798774719,0.7089249491691589,1.1349917237386373,1696623003491328516,
-0.09311830997467041,0.03632676601409912,0.890851189889083,1696623003504153611,
-0.07495206594467163,0.30205273628234863,1.5961655259592646,1696623003511394829,
-0.2313595414161682,0.24699169397354126,1.1610750273342214,1696623003521427634,
0.6999680995941162,-0.0898556113243103,1.1765456462170358,1696623003531423393,
-0.3049800395965576,0.35772091150283813,1.1821445800761834,1696623003541404368,
-0.4887201189994812,0.05275881290435791,1.0581204422544277,1696623003552575043,
-0.5191597938537598,0.4924558997154236,1.3518603536077864,1696623003561408215,
-0.009572803974151611,1.0625120401382446,1.2037264023403915,1696623003571478245,
0.8797805309295654,0.010242938995361328,0.9710895036594187,1696623003584109308,
0.6318609118461609,0.09083002805709839,1.6520302891165919,1696623003591491566,
0.0793982744216919,0.012148022651672363,1.2040877675147386,1696623003601472292,
-0.2539403438568115,0.32092565298080444,1.172121869097886,1696623003611559744,
-0.5939748883247375,0.8761348128318787,1.1588850279180982,1696623003621602302,
-0.5650103092193604,-0.011214256286621094,1.1240585668341494,1696623003631890765,
0.15176737308502197,0.28274697065353394,1.1746125381179588,1696623003641658334,
0.37592214345932007,0.3260188698768616,1.1335409408156336,1696623003651638009,
0.14857733249664307,0.002417922019958496,0.9335780831189483,1696623003663645439,
-0.620340883731842,0.06715410947799683,1.3504736503803718,1696623003671919004,
-0.366294264793396,0.30261313915252686,1.137145450424565,1696623003681800098,
0.024744510650634766,0.4929879903793335,1.145171966421153,1696623003691766972,
0.1530337929725647,-0.20139187574386597,1.1356732573053248,1696623003701942568,
0.281108021736145,0.5396590828895569,1.1703620326153088,1696623003711856785,
0.02410346269607544,0.47813355922698975,1.1655941847225901,1696623003721679203,
-0.3183240294456482,0.410186231136322,1.1200720076380029,1696623003731695542,
-0.4361671209335327,0.7221031188964844,0.9471653725770586,1696623003743437716,
-0.3060484528541565,0.03776627779006958,1.3481727248222226,1696623003751753960,
0.08202803134918213,0.27213388681411743,1.15352923836395,1696623003761774682,
0.34402477741241455,0.41758012771606445,1.1752981300522827,1696623003771853289,
0.33781909942626953,-0.02843916416168213,1.1987553300827523,1696623003781774546,
-0.24450159072875977,0.1835889220237732,1.1672304789406256,1696623003791905188,
-0.5150175094604492,0.20325642824172974,1.1747292102242937,1696623003801835854,
-0.5368937849998474,0.6882222294807434,1.1517336084837348,1696623003811872951,
0.1673373579978943,0.7177197337150574,1.0084824999474595,1696623003823286045,
0.3643537163734436,-0.13946980237960815,1.3438773209562447,1696623003831869984,
0.42387884855270386,0.23001283407211304,1.1695119030953582,1696623003841902842,
0.032304346561431885,0.4176686406135559,1.1812012252401878,1696623003851967710,
-0.33953654766082764,0.30126506090164185,1.1862932105228852,1696623003861945106,
-0.08405309915542603,0.3017854690551758,1.0852736034748012,1696623003872677984,
-0.16478067636489868,-0.20752370357513428,1.2388308979385063,1696623003881956059,
0.09399271011352539,0.41316354274749756,1.1467725130819868,1696623003891956426,
-0.019717514514923096,0.7402645349502563,0.937853169124524,1696623003904145088,
0.08744239807128906,0.2679557800292969,1.4327892612875754,1696623003912054934,
-0.25277179479599,0.32032138109207153,1.1325162959048032,1696623003922032992,
-0.3534383177757263,0.17153406143188477,1.1205450271854522,1696623003932143376,
-0.2075980305671692,0.42094606161117554,1.1586942730375565,1696623003942054324,
-0.23307675123214722,0.710229218006134,1.1596937097440445,1696623003952099463,
0.18362301588058472,-0.09415668249130249,1.1778517390148657,1696623003962042779,
-0.02066934108734131,-0.016070306301116943,1.17395067705797,1696623003972060872,
-0.051255762577056885,0.5097348690032959,0.9391943887489058,1696623003984470991,
-0.27429187297821045,0.43597882986068726,1.5091428774731739,1696623003992085143,
-0.16045314073562622,0.7415840029716492,1.1342335085538928,1696623004002107938,
0.0030961036682128906,-0.03018730878829956,1.1217787228070502,1696623004012197408,
-0.048480331897735596,-0.0002891421318054199,1.1568218837790152,1696623004022132449,
-0.27156710624694824,0.5093616843223572,1.1633342494620453,1696623004032134029,
-0.33562159538269043,0.09800064563751221,1.1734917338786308,1696623004042158782,
0.2574000358581543,0.4547722339630127,1.1765321306800847,1696623004052186840,
0.03839683532714844,-0.12084794044494629,0.9424830588328628,1696623004064628219,
0.1899142861366272,0.2760409712791443,1.545653207556245,1696623004072183858,
-0.03052520751953125,1.2557275295257568,1.1614300221842093,1696623004082219564,
-0.3811911344528198,0.13845843076705933,1.1531515297364285,1696623004092329212,
-0.1239999532699585,0.16047674417495728,1.1886867557980925,1696623004102220677,
-0.28859907388687134,0.3061966300010681,1.1876171625808671,1696623004112226425,
0.2234286069869995,0.17715239524841309,1.195368190657596,1696623004122243880,
0.41834646463394165,0.5155593156814575,1.3150563266993782,1696623004131284358,
-0.10015833377838135,-0.04896038770675659,0.9157122422464469,1696623004144045950,
