acc_x (m/s^2), acc_y (m/s^2), angular_z (rad/s), stamp, 
0.032727718353271484,-0.010690748691558838,-4.4776097271370645e-05,1696616965432017564,
0.012744009494781494,-0.012487292289733887,-5.4268003373101165e-05,1696616965441067629,
-0.04112136363983154,0.014449238777160645,-4.956114539971743e-05,1696616965451127826,
-0.023114919662475586,0.0036622285842895508,-3.856497382632121e-05,1696616965464153456,
-0.05548429489135742,0.010804235935211182,-7.257507489254094e-05,1696616965471075280,
-0.024925947189331055,0.014338374137878418,-4.9638596898875184e-05,1696616965481270835,
-0.02833878993988037,0.021448910236358643,-5.191953005138377e-05,1696616965491090665,
-0.02289581298828125,0.0410618782043457,-5.17255525467347e-05,1696616965501091725,
0.02565765380859375,0.024731695652008057,-4.9358635010979025e-05,1696616965511648297,
0.016855359077453613,-0.013104557991027832,-5.4904606234633994e-05,1696616965521138811,
0.023878037929534912,-0.009637534618377686,-5.273199170523914e-05,1696616965531161832,
0.049001216888427734,-0.009718596935272217,-4.166969033877657e-05,1696616965543845922,
0.016758263111114502,-0.05280792713165283,-7.107462311458055e-05,1696616965551334898,
0.005840003490447998,-0.03121495246887207,-5.423649912773421e-05,1696616965561217737,
0.0004648566246032715,-0.022149860858917236,-5.357678336884023e-05,1696616965571222338,
-0.026345491409301758,-0.018456876277923584,0.0009529446613767831,1696616965581221870,
-0.040369272232055664,0.004934489727020264,0.005575283577660409,1696616965601312626,
-0.038598477840423584,0.028240680694580078,0.0040155340373155,1696616965611487099,
-0.020782291889190674,0.03546422719955444,0.0016338032298765014,1696616965623503806,
-0.013530492782592773,0.028246760368347168,-0.00021735077936484347,1696616965631282412,
-0.00817573070526123,0.0012382268905639648,-0.0006958648746882509,1696616965641393191,
0.018605172634124756,0.003051280975341797,-0.0012316352257730387,1696616965651385753,
0.02205526828765869,-0.00042933225631713867,-0.0037553161895061927,1696616965660320610,
0.026047706604003906,-0.03070056438446045,-0.004114243761554835,1696616965671058471,
0.017100930213928223,-0.01796889305114746,-0.002744011174940556,1696616965681359842,
0.031433939933776855,-0.0036095380783081055,-0.0006971198537578372,1696616965691497059,
0.02614295482635498,-0.03780102729797363,0.0007335401282274629,1696616965703522334,
-0.023886382579803467,-0.03958255052566528,0.0024700967261776833,1696616965711409946,
-0.027333199977874756,0.005467534065246582,0.0019411395930141431,1696616965721496960,
-0.02398616075515747,0.012843608856201172,0.0024997177991291026,1696616965731488054,
-0.022337675094604492,0.01466226577758789,0.004049703354118058,1696616965741577608,
-0.03690880537033081,0.02895939350128174,0.0026611861298434973,1696616965750917859,
-0.0209769606590271,0.034439682960510254,0.0008493302409074253,1696616965761530071,
0.0020914673805236816,-0.02824270725250244,-0.0012060007016858087,1696616965771691323,
0.01647394895553589,-0.010115206241607666,-0.003172782078538814,1696616965783957177,
0.012485206127166748,0.023995399475097656,-0.005128906961667851,1696616965791555141,
0.04130333662033081,-0.010084807872772217,-0.0033549708793542423,1696616965801587210,
0.017611443996429443,-0.02079010009765625,-0.001764643661207107,1696616965811599866,
0.010528922080993652,0.006246507167816162,-0.0007009383523356094,1696616965821618163,
-0.014691531658172607,-0.006192207336425781,0.0014320412441073801,1696616965831610054,
-0.019897937774658203,-0.013302385807037354,0.003538647325506742,1696616965841657472,
-0.030461490154266357,-0.015069901943206787,0.003821580571787558,1696616965850942432,
-0.005271255970001221,0.011813342571258545,0.0019730843700014656,1696616965863522518,
-0.023197054862976074,0.033320844173431396,0.0017415347215548344,1696616965871685447,
-0.03031057119369507,0.03685498237609863,0.0014250057122081026,1696616965881677080,
-0.022655963897705078,-0.0062978267669677734,-0.00017529807995514933,1696616965891769712,
-0.02488178014755249,-0.011616528034210205,-0.0012355584100201607,1696616965901727397,
0.01988697052001953,0.015450358390808105,-0.0022197977883432235,1696616965912056295,
0.044609785079956055,-0.014994561672210693,-0.003997180485251895,1696616965921796087,
0.030143260955810547,-0.023816049098968506,-0.00497022337624011,1696616965931771243,
0.006613254547119141,-0.03459733724594116,-0.002361227869724325,1696616965943798063,
0.005185067653656006,-0.011347711086273193,-0.0002346209538437823,1696616965951801265,
-0.005028665065765381,-0.0027878284454345703,0.0040695670664182585,1696616965981860085,
-0.052879512310028076,0.0023302435874938965,0.0008857585756276525,1696616966001870012,
-0.027712106704711914,0.03248262405395508,-0.00019798745393720757,1696616966032622263,
0.021021246910095215,-0.007192671298980713,-0.0001809783189964356,1696616966042624398,
0.0798865556716919,-0.0162392258644104,-0.0024606740704834693,1696616966051990827,
-0.006861746311187744,0.0036906003952026367,-0.002809932171920057,1696616966072686428,
0.02760612964630127,-0.007138729095458984,-0.00125096367682751,1696616966082635859,
-0.011328399181365967,-0.02157062292098999,0.0021412934746755726,1696616966104205018,
-0.014611005783081055,-0.0019285082817077637,0.0029439302423434357,1696616966112609820,
-0.03796553611755371,-0.028865933418273926,0.00247005251141241,1696616966122657262,
-0.016447067260742188,-0.007286369800567627,0.00208606931936034,1696616966134556084,
-0.022032082080841064,0.03583800792694092,0.0011021692436476588,1696616966142627861,
0.0029465556144714355,0.03396153450012207,-0.0007039208894640753,1696616966152735404,
-0.029352128505706787,0.028517484664916992,-0.0012346793530729552,1696616966162785448,
0.013805150985717773,0.028472602367401123,-0.0023269283308326185,1696616966172682420,
0.04959917068481445,0.02114766836166382,-0.0026058889020140804,1696616966183578578,
0.023018956184387207,0.0011965036392211914,-0.002535948741436713,1696616966192704014,
0.017824888229370117,-0.011626839637756348,-0.0017843869977723114,1696616966202712649,
-0.007481575012207031,-0.027910888195037842,0.0002965663727936581,1696616966214544955,
0.0037727952003479004,-0.035204172134399414,0.0030185590350828,1696616966222761738,
-0.03751349449157715,-0.017483949661254883,0.004035118421487257,1696616966232835873,
-0.02296394109725952,-0.003197968006134033,0.004613407911176958,1696616966242796320,
-0.048427462577819824,-0.0013794898986816406,0.003002672369048596,1696616966252854465,
-0.024753808975219727,0.02025836706161499,0.0013300661948723264,1696616966263570492,
-0.02486330270767212,0.014891982078552246,-0.0007661374442993523,1696616966272789456,
0.005543351173400879,0.027475416660308838,-0.0017681312115679416,1696616966282807451,
-0.02530449628829956,0.029164135456085205,-0.001477310640566777,1696616966294807783,
-0.0016106367111206055,-0.010218381881713867,-0.004205040681565106,1696616966302816314,
0.026891589164733887,-0.02437877655029297,-0.0037782104750199033,1696616966313114009,
0.0325738787651062,-0.004466056823730469,-0.0028355389491462484,1696616966323080490,
0.022164344787597656,0.002736687660217285,-0.00178028755168591,1696616966333074395,
-0.013713717460632324,-0.026081502437591553,-0.0011900288260896811,1696616966343555061,
-0.008176803588867188,-0.04600632190704346,0.001045127333242373,1696616966351892276,
0.02047288417816162,0.004082977771759033,0.003176902995786386,1696616966363013374,
-0.04200249910354614,0.02731168270111084,0.0028405996753449896,1696616966375456308,
-0.04887270927429199,0.01278775930404663,0.0033677151283463725,1696616966382799067,
-0.007658779621124268,0.0037530064582824707,0.0008572956685276662,1696616966393115193,
0.01735055446624756,0.0002492666244506836,-0.0007303656817276138,1696616966402759332,
-0.004569411277770996,0.003985404968261719,-0.001771587551064767,1696616966412743083,
0.02819269895553589,-0.0011497735977172852,-0.002507224153338432,1696616966424002680,
0.02969205379486084,-0.015347838401794434,-0.0026215652801258055,1696616966432771685,
0.06177467107772827,-0.022351562976837158,-0.002298245639223734,1696616966442777454,
0.03784865140914917,-0.011577129364013672,-0.0022741779938628753,1696616966455280858,
0.021850168704986572,-0.011568009853363037,-0.0030863539649581655,1696616966462793368,
0.0018406510353088379,-0.027633368968963623,0.0003423377279998616,1696616966473098054,
0.0003389120101928711,-0.016687333583831787,0.004626864947010783,1696616966481895821,
-0.03576207160949707,0.01386791467666626,0.0032361996165797594,1696616966492844160,
-0.013859689235687256,0.010332226753234863,0.002228440098753333,1696616966503969266,
-0.001336514949798584,0.006697893142700195,0.0033775964779723783,1696616966512875500,
-0.008298933506011963,0.013783872127532959,0.002476282881651869,1696616966522866121,
-0.01387864351272583,0.024348974227905273,0.00025800555535633444,1696616966536063206,
0.0003420710563659668,0.02063584327697754,-0.0021367565607894436,1696616966541914111,
0.023910701274871826,-0.0007458925247192383,-0.0025727683272525116,1696616966552950514,
0.012646019458770752,0.0030713677406311035,-0.004429894764065671,1696616966562935740,
0.04636120796203613,-0.014505624771118164,-0.003277304160330175,1696616966573153117,
0.017162740230560303,-0.02509593963623047,-0.0015890154229634874,1696616966584246601,
-0.01143556833267212,-0.026898860931396484,-0.0002423888997385615,1696616966591931300,
-0.03648859262466431,-0.005325138568878174,0.0014171448489480288,1696616966601920342,
-0.03447192907333374,-0.023173928260803223,0.0006597719912282361,1696616966616177114,
-0.04184412956237793,-0.005140841007232666,-9.672725332053538e-05,1696616966622955345,
-0.05034351348876953,0.003959953784942627,-6.531080990384398e-05,1696616966632994126,
-0.03255969285964966,-0.004970431327819824,-6.478956274153495e-05,1696616966643056209,
-0.01593005657196045,0.013079404830932617,-6.543584073566383e-05,1696616966653018958,
-0.0014719367027282715,0.03283500671386719,-6.626826362614644e-05,1696616966662912813,
0.01309293508529663,0.007690608501434326,-6.465190040983061e-05,1696616966672996416,
0.031139612197875977,-0.019226491451263428,-6.502325080479409e-05,1696616966683022446,
0.04555249214172363,0.0005553960800170898,-5.49142323819884e-05,1696616966694894147,
0.05818915367126465,-0.0029981136322021484,-7.986607438961266e-05,1696616966703056871,
0.030855000019073486,-0.04424828290939331,-6.568662547090202e-05,1696616966713038337,
-0.03728592395782471,-0.045878052711486816,-6.554766813801657e-05,1696616966723040951,
-0.03932797908782959,-0.02955716848373413,-6.541946941766082e-05,1696616966733063190,
-0.012241125106811523,-0.009605109691619873,-5.9468020498806646e-05,1696616966744088437,
-0.01758795976638794,-0.009422719478607178,-7.2861847965454e-05,1696616966753035844,
-0.029821813106536865,0.028448164463043213,-6.584781819297727e-05,1696616966762992906,
-0.0066345930099487305,0.0338781476020813,-5.0477737589859075e-05,1696616966775981840,
0.0008295178413391113,0.0141829252243042,-9.208185025126002e-05,1696616966783061711,
0.007964849472045898,0.012395322322845459,-6.327198040544106e-05,1696616966793365290,
-0.02101200819015503,-0.006566226482391357,0.0,1696616966803121597,
0.018568456172943115,-0.008290410041809082,-0.0005908859851614779,1696616966813038676,
0.036150574684143066,-0.010041356086730957,-0.00212388589399328,1696616966823583680,
0.03337651491165161,-0.015337884426116943,-0.003465424369336143,1696616966833129571,
0.03426504135131836,-0.018895983695983887,0.0009491692780101505,1696616966843204450,
0.32523155212402344,0.04629838466644287,0.016783859493814147,1696616966855858067,
0.8475229740142822,0.23013830184936523,0.10791675549374521,1696616966863197442,
0.6991190910339355,0.4581529498100281,0.16961313539251527,1696616966873207385,
0.1815693974494934,0.3748469948768616,0.25773644479133234,1696616966883242507,
-0.2756994366645813,0.32416045665740967,0.34699712032615554,1696616966893137093,
-0.5239542722702026,0.5437102913856506,0.42710745246451814,1696616966903607282,
0.03225475549697876,0.6413873434066772,0.5802973864507222,1696616966913175306,
0.5786306262016296,0.5311990976333618,0.630639146112564,1696616966923221270,
0.17825812101364136,0.438226580619812,0.541143243984604,1696616966936038240,
-0.6407985091209412,0.46813148260116577,1.0454410167332178,1696616966943290377,
-0.7106767296791077,0.6062188744544983,0.8159882802014102,1696616966953469298,
-0.10445451736450195,0.37785476446151733,0.9052309014392926,1696616966963391727,
0.04950660467147827,-0.034790992736816406,0.9604003275288027,1696616966973325684,
-0.12348020076751709,-0.12103044986724854,0.9794070976740522,1696616966983655865,
-0.1522979736328125,0.16818439960479736,1.1218795015492367,1696616966993328453,
0.061451256275177,0.3643774390220642,1.1499643891593005,1696616967003371502,
0.22514307498931885,0.08599817752838135,1.0468398341997123,1696616967014900746,
0.04705756902694702,0.14357709884643555,1.4613304784266605,1696616967023397040,
-0.47913599014282227,0.26997458934783936,1.2873863305371192,1696616967033417825,
0.034339070320129395,0.18440788984298706,1.3176553311699333,1696616967043525034,
0.8344308137893677,0.7268080711364746,1.5327991278796165,1696616967052469735,
0.0749666690826416,0.750251829624176,1.2383783118450948,1696616967064005250,
-0.06974631547927856,0.16371947526931763,1.5917848767456944,1696616967073434928,
0.09435570240020752,0.18316650390625,1.5634141529183998,1696616967083504607,
-0.05003637075424194,0.27681243419647217,1.6557316622045775,1696616967103583054,
-0.18597066402435303,0.48998135328292847,1.740595491361266,1696616967113593720,
-0.4296950697898865,0.24874478578567505,1.7881118970655308,1696616967123643218,
-0.2549988627433777,-0.22012221813201904,1.8531679867395272,1696616967133578924,
-0.3090762495994568,0.00127488374710083,1.8254304236353234,1696616967143878329,
0.11521846055984497,0.7787538766860962,1.968469405459894,1696616967153590413,
0.07092112302780151,0.24374550580978394,1.930085789329798,1696616967163659428,
0.12271356582641602,0.5835016965866089,2.012600834887743,1696616967183653678,
-0.2330760955810547,0.8545153141021729,2.0582175836504972,1696616967193686074,
0.009108483791351318,0.018757402896881104,2.070436680345145,1696616967203725029,
-0.19673281908035278,-0.11671721935272217,2.0913118398946526,1696616967213708119,
-0.5034575462341309,0.18135404586791992,1.9215573248216027,1696616967224593014,
-0.21063220500946045,-0.13013088703155518,2.286311940711562,1696616967233714729,
-0.3044898509979248,-0.2240908145904541,2.25021434123374,1696616967242921546,
-0.3611501455307007,-0.550915539264679,1.947342390832323,1696616967263848485,
-0.3545227646827698,-0.3326531648635864,2.2007820201099735,1696616967272916804,
-0.6421315670013428,0.4642322063446045,1.6869933040691878,1696616967284586087,
-0.2643490433692932,-0.17157971858978271,2.0518369985104963,1696616967294039379,
-0.5134037733078003,-0.13440096378326416,1.9202746363162615,1696616967304044261,
0.3206597566604614,0.2407088279724121,1.9478371091794013,1696616967313847225,
-0.024769127368927002,-0.31622499227523804,1.85553199803527,1696616967324033030,
-0.2378721833229065,-0.35540783405303955,1.5668553184558935,1696616967335943821,
-0.371939480304718,-0.11428266763687134,2.3452529267950104,1696616967343859669,
-0.3216809630393982,0.42759400606155396,2.04318481133063,1696616967352891957,
-0.5718366503715515,0.17642074823379517,1.6683245053239666,1696616967363942912,
-0.253967821598053,-0.22670084238052368,1.8487864168227606,1696616967373979133,
0.2125229835510254,0.373157799243927,1.8505946758484855,1696616967384110288,
0.05983680486679077,0.34795600175857544,1.9233381829647964,1696616967393947687,
-0.035736918449401855,-0.007583558559417725,1.8968319284167485,1696616967403978750,
-0.3420502543449402,-0.15400946140289307,1.646517929890534,1696616967415642749,
0.12145322561264038,0.42720991373062134,2.334202320755554,1696616967423941887,
-0.05560469627380371,0.15200334787368774,1.943471536341121,1696616967433974303,
-0.055698513984680176,-0.3512706756591797,1.9350250228165373,1696616967444088525,
-0.19993305206298828,0.12785154581069946,1.9382912585473915,1696616967454263572,
-0.1848105788230896,0.3355547785758972,2.0193170711396577,1696616967464045983,
-0.24727016687393188,0.04733496904373169,1.9745153603515282,1696616967474036249,
-0.5011849403381348,-0.3620113134384155,1.9718372775982012,1696616967484046522,
-0.1391637921333313,0.2581441402435303,1.6786941411969856,1696616967495776039,
-0.25147926807403564,-0.032033681869506836,2.357162620493911,1696616967504068133,
-0.1552829146385193,-0.01728898286819458,1.8815509215754354,1696616967514298913,
-0.29337501525878906,0.04864835739135742,1.5453593480872756,1696616967526592927,
0.05974656343460083,0.22685527801513672,2.477226797414486,1696616967534201208,
-0.5828071236610413,0.05120784044265747,1.8982393219275764,1696616967544173224,
-1.0249066352844238,-0.1925032138824463,1.9219294630917831,1696616967554180600,
0.0908779501914978,0.733022153377533,1.9555404019961065,1696616967564172668,
-0.5159243941307068,0.05894047021865845,1.6591563340676714,1696616967576078801,
-0.01884603500366211,-0.46478044986724854,2.4218692249852807,1696616967584229288,
0.12016487121582031,0.06853979825973511,1.953327485987441,1696616967594273756,
-0.16596198081970215,0.4767923951148987,1.5657808775848947,1696616967606709924,
0.1401296854019165,-0.027142345905303955,2.552357545790964,1696616967614264247,
-0.25087469816207886,-0.46395087242126465,1.9096518277087018,1696616967624270659,
-0.063934326171875,0.44989657402038574,1.9004314486954634,1696616967634315041,
-0.5766434669494629,0.3011561632156372,1.9171936701337076,1696616967644316163,
-0.228493332862854,-0.13320279121398926,1.695801139667114,1696616967655653085,
-0.26500773429870605,-0.07560491561889648,2.2400471778814275,1696616967664328893,
-0.20087867975234985,0.28183895349502563,1.9446598259196157,1696616967674413039,
0.17498135566711426,-0.16855382919311523,1.572426181441068,1696616967686831892,
-0.10843402147293091,-0.26031386852264404,2.544853960709189,1696616967694426608,
-0.12418419122695923,0.4553900957107544,1.9067993429547667,1696616967704447573,
-0.6740570068359375,-0.003256499767303467,1.9061090929941509,1696616967714421377,
-0.35854417085647583,-0.07309716939926147,1.8576511549751225,1696616967724651391,
-0.38214778900146484,0.45587635040283203,2.0582102196062997,1696616967733902657,
0.11934185028076172,0.6588525772094727,1.7992945332914778,1696616967744501637,
0.14985299110412598,-0.02137202024459839,1.8752867607640735,1696616967754706423,
-0.2857653498649597,-0.3646550178527832,1.4882484062982138,1696616967767590368,
0.05129355192184448,0.36537814140319824,2.7733014957047257,1696616967774524422,
-0.21962487697601318,0.08048903942108154,1.9160681967416255,1696616967784583701,
-0.42759495973587036,-0.25927746295928955,1.927516477918834,1696616967794580448,
-0.49813079833984375,-0.1981823444366455,1.9287258872137223,1696616967804589517,
-0.15983736515045166,0.4715840816497803,1.741930462602605,1696616967815666880,
-0.2784821391105652,0.3309556841850281,2.159091258824674,1696616967824608913,
-0.4737898111343384,0.029666781425476074,1.9287839729663856,1696616967834675740,
-0.3706861734390259,0.1911824345588684,1.5459408101409104,1696616967847343659,
-0.5874999761581421,0.11727875471115112,2.6933750043948743,1696616967854642766,
-0.14531707763671875,0.16914355754852295,1.9562246799006515,1696616967864669711,
-0.4403344392776489,0.01876235008239746,1.9273966077474791,1696616967874778339,
-0.0027446746826171875,0.052815377712249756,1.9353925061479462,1696616967884729527,
0.2321283221244812,0.11129182577133179,1.647258719330865,1696616967896290580,
0.05488187074661255,-0.09382849931716919,2.2459731617486964,1696616967904723086,
0.4535197615623474,0.17488569021224976,1.8483134857996273,1696616967914975413,
-0.3248862624168396,0.04480564594268799,1.4981770061620248,1696616967927615513,
-0.42410534620285034,-0.025587260723114014,2.6560404139768847,1696616967934752076,
-0.36744147539138794,-0.01313096284866333,1.8946013136909592,1696616967944795946,
0.045869410037994385,0.2619452476501465,1.8900069558552492,1696616967954860237,
0.023105502128601074,0.03651916980743408,1.8708370581758305,1696616967964997805,
-0.022423863410949707,-0.22176092863082886,1.7724536933617563,1696616967975638337,
0.23741281032562256,0.47303831577301025,2.0462443847004628,1696616967984818852,
-0.33389657735824585,0.5792564749717712,1.8541982579356917,1696616967994853494,
-0.42246925830841064,0.2530003786087036,1.3995383440712297,1696616968008137466,
-0.7685928344726562,-0.017026066780090332,2.8045535240889037,1696616968014861397,
-0.48983776569366455,0.4374843239784241,2.1119034718149536,1696616968023935535,
-0.4936985373497009,0.16196000576019287,1.9402146898328396,1696616968033926379,
-0.03341066837310791,-0.47936320304870605,1.7689494857605645,1696616968044944763,
-0.10183429718017578,-0.0007134675979614258,1.8227449046873745,1696616968055662843,
-0.1269017457962036,0.05902129411697388,2.344713147056729,1696616968063922339,
0.27731531858444214,0.18261325359344482,1.7271368980527517,1696616968074995152,
-0.22873961925506592,-0.06209057569503784,1.4442303705117847,1696616968088123986,
0.03017604351043701,0.40868157148361206,2.7449004759702382,1696616968094990422,
-0.38590574264526367,0.2396513819694519,1.8710304388801562,1696616968105022591,
-0.6016057133674622,0.28498131036758423,1.8827705944537851,1696616968115017532,
-0.452351450920105,0.29635345935821533,1.8978656656296882,1696616968125033889,
-0.05085015296936035,0.11446046829223633,1.749736597011389,1696616968135957929,
-0.09357404708862305,-0.2557787299156189,2.099565255584461,1696616968145098558,
-0.19493991136550903,-0.33226484060287476,1.926347711179509,1696616968155077607,
0.20259082317352295,0.4982641935348511,1.5227416276795438,1696616968167671484,
-0.47398436069488525,0.17685723304748535,2.588817967179403,1696616968175079736,
-0.16984295845031738,-0.279579222202301,1.909075682364569,1696616968185192744,
0.17898213863372803,0.19390296936035156,1.9396132125438201,1696616968195241504,
-0.29322344064712524,0.7297698259353638,1.971929893767158,1696616968205167874,
-0.0628315806388855,0.23570847511291504,1.784150312600972,1696616968216105500,
-0.2535156011581421,0.0008387565612792969,2.1188481749424866,1696616968225265949,
-0.13382399082183838,0.46452128887176514,1.9260904965900223,1696616968235287979,
-0.1589704155921936,0.1955741047859192,1.5436612767946505,1696616968247657117,
-0.08438414335250854,0.07076007127761841,2.3978562022676675,1696616968255540210,
-0.2835702896118164,0.20771759748458862,2.111612440268579,1696616968264484438,
0.11245036125183105,-0.10368335247039795,1.7402694489743986,1696616968275422467,
-0.03692495822906494,-0.10971492528915405,1.9060795176533214,1696616968285469447,
-0.18855923414230347,0.5568232536315918,1.8950433342470834,1696616968295671680,
-0.553207278251648,0.31264960765838623,2.028352446055557,1696616968305310225,
-0.6100907921791077,0.13334912061691284,1.9386745127476024,1696616968315456618,
-0.4814900755882263,0.48960185050964355,1.6112853538200935,1696616968327681289,
-0.20641767978668213,0.27160215377807617,2.564554541971597,1696616968335350513,
-0.06813877820968628,-0.19054561853408813,1.9417714043352468,1696616968345428411,
0.17207270860671997,-0.1317610740661621,1.9434621981040194,1696616968355429005,
0.4084051251411438,0.3032715320587158,1.8948386660380059,1696616968365600517,
-0.26579076051712036,-0.048572421073913574,1.8979795383579354,1696616968375660767,
-0.5987895727157593,-0.22783732414245605,2.1527465221401805,1696616968384457226,
-0.4622064232826233,0.2791297435760498,1.716466640096562,1696616968395507827,
-0.34575343132019043,0.49823570251464844,1.628225308767747,1696616968407244613,
-0.40405672788619995,-0.17823004722595215,2.657628700173084,1696616968414475612,
0.13653451204299927,-0.018705010414123535,1.7474468299653338,1696616968425520887,
0.16211742162704468,0.5440940260887146,1.9273732250690725,1696616968435558204,
-0.18642497062683105,0.22946542501449585,1.8667248950051218,1696616968445855895,
-0.08929556608200073,0.03798645734786987,1.8712135965460588,1696616968455999477,
-0.33300358057022095,0.09342783689498901,1.9683177898704993,1696616968465589066,
-0.19897925853729248,0.2997867465019226,1.8436628675130875,1696616968475826986,
-0.05503189563751221,0.03304779529571533,1.5918030342927265,1696616968487701710,
-0.18101173639297485,0.05245488882064819,2.3831778779245276,1696616968495670453,
-0.16635894775390625,0.26173287630081177,1.9102756267869456,1696616968505680027,
-0.3891315460205078,0.048301875591278076,1.9145232787958775,1696616968515713720,
-0.2481013536453247,-0.006225883960723877,1.927083182711573,1696616968525721812,
-0.32486170530319214,0.13685065507888794,1.8576714961229026,1696616968536146836,
-0.13543462753295898,0.3251013159751892,2.0105503163519263,1696616968545777924,
-0.11969441175460815,0.10660487413406372,1.923813088103805,1696616968555783196,
-0.03423595428466797,0.04387480020523071,1.5409099189872963,1696616968568198992,
0.3761705756187439,0.42238593101501465,2.533352183669011,1696616968575731370,
0.10283780097961426,0.33944380283355713,1.8876103226078693,1696616968585802193,
-0.08935868740081787,0.25726866722106934,1.8835365633268406,1696616968595872189,
-0.6132706999778748,0.04224526882171631,1.916058822698095,1696616968605839846,
-0.5392477512359619,0.07972705364227295,1.897008336370073,1696616968615995741,
-0.4618566632270813,0.046380460262298584,1.9745966341603676,1696616968625818747,
-0.03730124235153198,-0.10458886623382568,1.9232674927898161,1696616968635867240,
0.09898823499679565,-0.01957237720489502,1.6212617119297983,1696616968647703233,
0.15857207775115967,-0.23986446857452393,2.3308338016114662,1696616968655833717,
0.1982782483100891,0.13892769813537598,1.851124115046683,1696616968666012353,
-0.2792573571205139,0.45700883865356445,2.1277786620556025,1696616968674902897,
-0.3363645076751709,0.6451056599617004,1.6900652776430884,1696616968686156820,
-0.4270790219306946,0.1587316393852234,1.955750228617998,1696616968695943596,
-0.08748477697372437,0.13486188650131226,2.1497709667354505,1696616968704917365,
-0.2754579782485962,0.19536250829696655,1.9437261100584253,1696616968714913871,
-0.028519809246063232,-0.1885913610458374,1.841533315402361,1696616968735989048,
-0.08204877376556396,-0.14224940538406372,1.9120790903236922,1696616968746008549,
0.026696979999542236,0.11317157745361328,1.8839285137540276,1696616968756066468,
-0.3982037305831909,-0.06259703636169434,1.8931583756053432,1696616968766031451,
-0.3801578879356384,0.15139055252075195,1.8814030610905133,1696616968776078740,
-0.31971126794815063,0.5790072679519653,1.9174347097730196,1696616968786011148,
-0.050857722759246826,0.34049731492996216,1.9128959934623924,1696616968796057179,
0.26799291372299194,-0.010838687419891357,1.6636688145686984,1696616968807710833,
-0.13499122858047485,0.11055201292037964,2.3352635468235032,1696616968816080890,
-0.019565224647521973,0.34218132495880127,1.8890926976966302,1696616968826408366,
-0.11199188232421875,-0.16625922918319702,1.9894252049710244,1696616968836142644,
-0.004773557186126709,-0.20294910669326782,1.9163282323383493,1696616968846168984,
-0.26106321811676025,0.1949806809425354,1.9113145131132614,1696616968856166586,
-0.22817057371139526,0.05091625452041626,1.8980132034692818,1696616968866203778,
-0.0876542329788208,-0.05676645040512085,1.9033490580004613,1696616968876228743,
-0.202165424823761,0.30839788913726807,1.661944435476514,1696616968887762262,
-0.07698726654052734,0.45128095149993896,2.2710529297533957,1696616968896235599,
-0.5269305109977722,-0.21042907238006592,1.9079330044976759,1696616968906349143,
-0.05542123317718506,0.19664263725280762,1.950112475940264,1696616968916272083,
0.09719794988632202,0.6793715953826904,1.9434463814800567,1696616968926277908,
0.1787489652633667,0.10882431268692017,1.9187945619634592,1696616968936427755,
0.25957179069519043,-0.38759326934814453,1.9710972614207074,1696616968946309011,
0.02745586633682251,0.01249772310256958,1.9540764438101772,1696616968956284564,
0.27929800748825073,0.5185128450393677,1.7012285310121331,1696616968967719797,
-0.5514605045318604,-0.06876277923583984,2.256204451796442,1696616968976310120,
-0.344033420085907,0.008558869361877441,1.9167011733390444,1696616968986405462,
-0.2397475242614746,0.24571162462234497,1.9288338304203685,1696616968996422719,
-0.3918595314025879,0.08175694942474365,1.9268484607821441,1696616969006440680,
-0.14723753929138184,-0.007357299327850342,1.9304191159015736,1696616969016408615,
0.09555268287658691,0.25294744968414307,1.911377216844692,1696616969026426033,
0.03924882411956787,0.0670931339263916,1.8760090237495117,1696616969036615344,
-0.1731255054473877,-0.4431827664375305,1.6202539098225721,1696616969048419877,
0.2083023190498352,0.2909472584724426,2.3956316026587783,1696616969056451489,
-0.38656580448150635,0.6635566353797913,1.8938622855063274,1696616969066687848,
-0.14427441358566284,0.08618545532226562,1.583211312499111,1696616969078990116,
0.13021844625473022,-0.11547452211380005,2.882099663575971,1696616969085802792,
-0.2729828953742981,0.4546700119972229,1.8368129025526148,1696616969096574910,
-0.21253758668899536,0.34432780742645264,1.9850434476681416,1696616969106566314,
-0.6985151171684265,-0.3239327073097229,1.9766859562029115,1696616969116563359,
-0.04039400815963745,0.2638704776763916,1.6994496913064638,1696616969128106248,
-0.260992169380188,0.19836443662643433,2.2971026392299447,1696616969136557718,
-0.05827474594116211,-0.0935593843460083,1.9020623740890352,1696616969146642889,
0.09692609310150146,-0.14100301265716553,1.5259034617150788,1696616969159131106,
0.1846676468849182,0.09784501791000366,2.517267481019392,1696616969166689881,
0.4157569408416748,0.09501093626022339,1.9074176932434665,1696616969176697504,
-0.48844271898269653,-0.08971458673477173,1.9035326624856135,1696616969186778585,
-0.5739449858665466,0.33048129081726074,1.9205353051884708,1696616969196817279,
-0.18825119733810425,0.2680475115776062,1.7649017168460077,1696616969207731093,
0.06221044063568115,-0.19630926847457886,2.129803403841773,1696616969216746010,
-0.0014965534210205078,0.341974139213562,1.8204679967730975,1696616969227245758,
-0.2250804305076599,-0.019426703453063965,1.6059019338108602,1696616969239051076,
-0.2250804305076599,-0.019426703453063965,2.738352920794944,1696616969245901391,
0.17936527729034424,0.4369983673095703,1.6805913997063653,1696616969257007285,
0.23024582862854004,0.40265196561813354,1.8841401676920875,1696616969266948143,
-0.1833045482635498,0.2362058162689209,1.9182913472281033,1696616969276792686,
-0.5486407279968262,0.13046914339065552,1.7300576785357629,1696616969287839356,
-0.2818240523338318,0.41179293394088745,2.168087899538285,1696616969296831636,
-0.29524779319763184,-0.18789589405059814,1.907822343207288,1696616969307210034,
0.011100292205810547,-0.30626416206359863,1.6140417656698176,1696616969319520827,
0.05694931745529175,0.04064732789993286,2.6554929448507787,1696616969326976235,
0.2075020670890808,-0.007076680660247803,1.9609306581882593,1696616969336980967,
-0.04175072908401489,-0.05945587158203125,1.9471375814918361,1696616969346947452,
-0.5567441582679749,0.13895291090011597,1.9110793864852185,1696616969357002933,
-0.1700696349143982,0.4950287938117981,1.6944664527069317,1696616969368208783,
-0.30068254470825195,0.1001746654510498,2.102721366614502,1696616969377145237,
0.14274674654006958,-0.021343767642974854,1.849025745594329,1696616969387255111,
0.43009620904922485,0.16991889476776123,1.4695307153718282,1696616969399994648,
-0.13234490156173706,-0.03296464681625366,2.698098460243674,1696616969406993843,
0.008416593074798584,-0.2723519206047058,1.8681806698298642,1696616969417192170,
-0.15178853273391724,0.07204437255859375,1.9567548486047615,1696616969426994077,
-0.13406974077224731,0.5193435549736023,1.910892346480089,1696616969437065801,
-0.2023419737815857,-0.15215545892715454,1.8093368445978817,1696616969447706906,
0.29047244787216187,-0.07922667264938354,1.9228037317418474,1696616969457703750,
-0.20297670364379883,0.5339972376823425,1.9095964111108148,1696616969467791081,
-0.4775744080543518,0.5094654560089111,1.5895578917754496,1696616969479961126,
-0.607532799243927,0.10199296474456787,2.463296331889855,1696616969487855507,
-0.6949976682662964,-0.015853166580200195,1.9657270613268012,1696616969497796134,
-0.42451441287994385,-0.1029965877532959,1.955849295668933,1696616969507793517,
-0.127690851688385,-0.1896587610244751,1.9611069021241962,1696616969517734920,
0.3423187732696533,0.41787248849868774,2.091458876655824,1696616969526994145,
0.5169802308082581,0.1442863941192627,1.782075956261551,1696616969537819026,
0.2945457100868225,-0.41722750663757324,1.9212779503447963,1696616969547817995,
-0.3033069968223572,-0.6279957890510559,1.4900452162121025,1696616969560695679,
-0.16252988576889038,0.4202287793159485,2.693169070214521,1696616969567821362,
0.026616394519805908,0.5447242259979248,1.9111938888072706,1696616969577805169,
-0.29411351680755615,-0.1321428418159485,1.8864021382688125,1696616969587853359,
-0.25533783435821533,0.14535635709762573,1.866469969932639,1696616969598057237,
-0.007891952991485596,0.5298715829849243,1.940037262756093,1696616969608009517,
0.02804642915725708,0.15265655517578125,1.990111106450924,1696616969617818561,
-0.19232159852981567,-0.42476946115493774,2.1186165960885326,1696616969626976557,
0.162436842918396,0.12688052654266357,1.488289745514234,1696616969639954068,
-0.14333707094192505,0.1793203353881836,2.3437119033115072,1696616969648194285,
-0.5313845276832581,-0.21225470304489136,1.9933075067301862,1696616969657869929,
-0.12851423025131226,0.0015778541564941406,2.11412720259057,1696616969666958064,
-0.27390414476394653,0.26010024547576904,1.7735548454336305,1696616969677832935,
-0.18770521879196167,-0.06277447938919067,1.8754022116609859,1696616969688156059,
-0.19620352983474731,-0.09727030992507935,1.994305678503873,1696616969697872998,
0.08813631534576416,0.5166015028953552,1.8796419373425064,1696616969708158386,
-0.21177387237548828,-0.04949122667312622,1.635228116677428,1696616969719941994,
-0.3048570156097412,-0.43437659740448,2.722324012086719,1696616969726996501,
-0.026816129684448242,0.37716996669769287,1.814755034747805,1696616969737559529,
-0.1501442790031433,0.4268072843551636,1.91856796800987,1696616969747594790,
0.24838870763778687,-0.11341559886932373,2.159272725334084,1696616969756548420,
0.21843242645263672,0.017024517059326172,1.650368673545486,1696616969768329074,
0.052436649799346924,0.5130282044410706,2.370789750963005,1696616969776584633,
-0.6133792996406555,-0.045057713985443115,1.766976864096657,1696616969787698576,
-0.7705583572387695,-0.031006574630737305,1.5164219898325975,1696616969800658362,
-0.09512132406234741,0.6278501749038696,2.819899483093173,1696616969807622444,
0.20899856090545654,0.0030840635299682617,1.945087348160497,1696616969817655765,
0.14455699920654297,-0.40202993154525757,1.9237948054234895,1696616969827732473,
0.21103662252426147,-0.020769894123077393,1.9468341802648534,1696616969837644054,
-0.011150002479553223,0.09339898824691772,1.9118989066838734,1696616969847694839,
-0.8835509419441223,-0.4569024443626404,1.9164931845709472,1696616969857687456,
-0.17642498016357422,0.11555027961730957,2.062245609843858,1696616969866955578,
-0.1816057562828064,0.4605768322944641,1.4880712256214506,1696616969879812414,
-0.03387099504470825,0.1235356330871582,2.4279955960553137,1696616969887741316,
-0.4650605320930481,-0.09230798482894897,1.9384430887958508,1696616969897779993,
-0.5536041259765625,0.2566274404525757,1.9381069153271737,1696616969907829032,
-0.19220882654190063,0.3053128719329834,1.950751732052883,1696616969917768366,
-0.31631892919540405,-0.3258790373802185,1.7969163225444038,1696616969928441176,
0.26665353775024414,0.20246487855911255,2.018738225243123,1696616969937811532,
0.2978297472000122,-0.09078794717788696,1.8683348491533502,1696616969947827788,
0.3545575737953186,-0.1732274293899536,1.6781212035356428,1696616969958905404,
-0.07836568355560303,-0.03272634744644165,2.0790573041346803,1696616969967833239,
-0.3733711838722229,0.2646563649177551,1.8473801806760912,1696616969977882636,
-0.13851165771484375,0.15181463956832886,1.8692045534869013,1696616969987878509,
-0.48373663425445557,-0.09079128503799438,2.074445562721409,1696616969996988066,
0.07277143001556396,0.38776975870132446,1.7311894583112808,1696616970008028844,
-0.3707773685455322,0.14701193571090698,2.1531003017985055,1696616970016956550,
-0.4360530972480774,-0.04483598470687866,1.7419475672898852,1696616970028030313,
0.06741410493850708,0.32452332973480225,1.9198916442445546,1696616970048068884,
0.18504440784454346,0.14134639501571655,1.8762225533356738,1696616970058268473,
0.47370028495788574,-0.10700052976608276,1.9463939839645366,1696616970068110004,
0.17860060930252075,0.08348411321640015,1.9293933320660106,1696616970078086017,
-0.4893157482147217,0.05575406551361084,1.922582190471639,1696616970088147501,
-0.6934254169464111,0.008717954158782959,1.9515301032727816,1696616970098118782,
-0.5581337213516235,0.05630141496658325,1.9486223998909669,1696616970108127581,
-0.16828638315200806,0.2548917531967163,1.5700760297473562,1696616970120521304,
0.04670059680938721,-0.5231573581695557,2.538971127097715,1696616970128132086,
0.321072518825531,-0.10373872518539429,1.9066704644932873,1696616970138149597,
-0.10355579853057861,0.38252925872802734,1.8776832976745519,1696616970148194132,
-0.13840824365615845,0.09631913900375366,1.8740309004177893,1696616970158146561,
-0.24920135736465454,-0.23281538486480713,1.8295171731421975,1696616970168307003,
-0.26880621910095215,0.3572860360145569,1.8847342743240976,1696616970178227731,
-0.04588794708251953,0.5165612697601318,1.8839350713061134,1696616970188295413,
-0.27452462911605835,0.0734868049621582,1.649180841184288,1696616970199983114,
-0.31445765495300293,0.3548181653022766,2.3321018998269984,1696616970208360068,
-0.22926771640777588,-0.09549450874328613,1.9742817424118322,1696616970218310891,
-0.2617518901824951,-0.36590731143951416,1.9403412771994262,1696616970228461878,
-0.11507803201675415,0.18205112218856812,1.9960980092749887,1696616970238311354,
0.07825762033462524,-0.06309032440185547,1.9012625669902024,1696616970248570575,
-0.1589188575744629,-0.12777608633041382,1.9903647215703728,1696616970258271194,
0.25979185104370117,0.36035728454589844,1.894266975152443,1696616970268361353,
0.4748228192329407,0.3304685354232788,1.657696482664743,1696616970279853553,
-0.4615579843521118,-0.005335688591003418,2.2591305839191533,1696616970288317249,
-0.9772889614105225,0.04043734073638916,1.9106685892072857,1696616970298396455,
-0.5072041749954224,0.690700113773346,1.9254741692656123,1696616970308465094,
-0.58362877368927,0.0010951757431030273,1.970089888109656,1696616970318381231,
-0.12680429220199585,-0.560100793838501,1.9514748827735404,1696616970328444221,
0.309714138507843,0.06670522689819336,1.9651255557643392,1696616970338419784,
0.4397261142730713,0.09541016817092896,1.9362092267211586,1696616970348492677,
-0.03423410654067993,-0.29651474952697754,1.6378993299412048,1696616970360317822,
-0.6255537271499634,-0.28008824586868286,2.359472839659299,1696616970368468851,
-0.14467072486877441,0.4348793625831604,1.8642999773231645,1696616970378724031,
-0.6685702800750732,0.18075710535049438,1.558900575847513,1696616970390984208,
0.08153271675109863,0.12266486883163452,2.4486872536811495,1696616970398794627,
0.5461502075195312,0.42005956172943115,1.9757456104244246,1696616970408525566,
-0.017416656017303467,0.2773507833480835,1.9285462676862075,1696616970418587947,
-0.6571500301361084,0.15674543380737305,1.9619288420597236,1696616970428581038,
-0.693634033203125,0.20912379026412964,1.6487432260004695,1696616970440568789,
-0.0654030442237854,0.11220520734786987,2.4773196145036445,1696616970448573508,
-0.34336936473846436,-0.6933720707893372,2.19197460026643,1696616970457598724,
-0.08934301137924194,0.029486000537872314,1.456669551075433,1696616970471069720,
0.23388785123825073,0.3027249574661255,2.5682574554836592,1696616970478615128,
0.18756723403930664,-0.10089033842086792,1.8987521953548971,1696616970488676814,
-0.403730571269989,-0.17707282304763794,1.8866870003906906,1696616970498670019,
-0.5432247519493103,0.2507217526435852,1.8778458464566217,1696616970508658118,
-0.21710383892059326,0.33099859952926636,1.6818252043967217,1696616970519859127,
-0.6389483213424683,-0.03865969181060791,2.1581753590805337,1696616970528684175,
-0.15404999256134033,0.22425156831741333,1.9142559145188196,1696616970538743645,
-0.08140367269515991,0.1275029182434082,1.5115459459776637,1696616970551526518,
-0.4869745969772339,-0.209669291973114,2.6931315718509943,1696616970558726330,
-0.20467275381088257,-0.08932417631149292,1.9247610647760685,1696616970568805846,
0.10542058944702148,0.19562995433807373,1.9309172273922028,1696616970578775837,
0.061074912548065186,-0.08747106790542603,1.8898380072243344,1696616970588837927,
-0.15809369087219238,-0.03734773397445679,1.8589572764133542,1696616970598933327,
-0.029723405838012695,0.46965253353118896,1.8918470101714495,1696616970608792598,
-0.3969414234161377,0.37087541818618774,1.8639859699029173,1696616970618833612,
-0.3131706118583679,0.13085651397705078,1.4421304924765148,1696616970631947169,
0.15091031789779663,0.14666372537612915,2.7900899122445937,1696616970638830837,
0.22935640811920166,0.3312690854072571,2.1498484260001316,1696616970647900648,
-0.7560543417930603,-0.2017911672592163,1.9695095276450416,1696616970657921847,
-0.336169958114624,-0.13748306035995483,1.9853606624080236,1696616970667904287,
0.06379276514053345,0.22959762811660767,1.6460765941245867,1696616970679879308,
-0.29298150539398193,-0.21722954511642456,2.4210619524855477,1696616970687934719,
-0.3431852459907532,-0.08981209993362427,1.7497756054744673,1696616970698953761,
0.06094241142272949,0.14899969100952148,1.583167565252894,1696616970710940514,
0.26907312870025635,0.24944013357162476,2.333632057428438,1696616970718950878,
-0.5915269255638123,-0.0984569787979126,1.8537227027056498,1696616970729004525,
-0.43115347623825073,0.30626946687698364,1.863759735545363,1696616970739066542,
-0.421760618686676,0.3687334656715393,1.8927405831307502,1696616970749075601,
-0.8878461122512817,-0.11223989725112915,1.6787790237133955,1696616970760483188,
-0.5806506276130676,-0.2091132402420044,2.2530813966722523,1696616970769085577,
0.03710448741912842,0.2538034915924072,1.9334668336097192,1696616970779128341,
0.17705947160720825,-0.008993864059448242,1.4976112633026764,1696616970791967597,
0.048376619815826416,-0.3188689947128296,2.654735690932705,1696616970799117472,
0.2663648724555969,0.3121044635772705,1.8631342011545953,1696616970809168594,
-0.2101101279258728,0.23597609996795654,1.8500168651302287,1696616970819193435,
-0.4734609127044678,-0.06635499000549316,1.8527914771277034,1696616970829183322,
-0.20015448331832886,0.36190229654312134,1.7301160144698824,1696616970839975308,
0.10263180732727051,0.5401627421379089,2.0630113130472214,1696616970849168540,
0.2811097502708435,-0.03470093011856079,1.9204086052140585,1696616970859193460,
-0.4252360463142395,-0.41557276248931885,1.5231775715366245,1696616970871991411,
-0.47885966300964355,0.765026867389679,2.7356526790912232,1696616970879212090,
-1.3290188312530518,0.06553900241851807,1.987728478367531,1696616970889254649,
-0.23314982652664185,-0.5101795792579651,1.9989463436791857,1696616970899272244,
0.25335174798965454,0.49095600843429565,2.003514073189704,1696616970909267348,
-0.46903252601623535,0.34364646673202515,1.8167971165876904,1696616970920231750,
1.0142368078231812,-0.1219213604927063,2.1711285146148103,1696616970929312674,
0.339213490486145,0.4420816898345947,1.9445866532494902,1696616970939361226,
-0.30113595724105835,0.3897421956062317,1.4969909729416904,1696616970952339005,
-0.41924095153808594,-0.20535248517990112,2.76556170733762,1696616970959357067,
-1.2401611804962158,0.07341152429580688,1.9137659612313593,1696616970969562138,
-0.6267549991607666,0.6818853616714478,2.003156520386703,1696616970979420765,
0.2007002830505371,-0.2569754123687744,1.9758378834519694,1696616970989433800,
0.056809186935424805,-0.6558724045753479,1.8025928863494098,1696616971000347993,
-0.4165794253349304,0.2291882038116455,2.1603058017899515,1696616971009432420,
-0.1441035270690918,0.10881257057189941,1.9482575991315871,1696616971019430498,
-0.02895563840866089,-0.09543675184249878,1.5006154992334515,1696616971032239796,
-0.6646915078163147,0.43661266565322876,2.63358342794292,1696616971039454606,
-0.05366629362106323,0.1798492670059204,1.8783706756100897,1696616971049483652,
-0.06637656688690186,-0.41113048791885376,1.8652207501339002,1696616971059523679,
-0.5488483905792236,0.4709439277648926,1.8694497679790891,1696616971069525590,
-0.4561278820037842,0.6599107384681702,1.6906064891173136,1696616971080596278,
-0.2463282346725464,-0.25239115953445435,2.0993547079596433,1696616971089570088,
-0.5574740767478943,-0.09830361604690552,1.8946653174059838,1696616971099633089,
-0.6701334118843079,0.5706459879875183,1.7002043628169932,1696616971110941907,
0.014912664890289307,0.12328803539276123,2.2305635791392247,1696616971119588223,
-0.01152735948562622,-0.3415380120277405,1.9272466219664128,1696616971129616176,
0.03845930099487305,0.22836142778396606,1.9207767161865237,1696616971139720329,
0.37711775302886963,0.2442111372947693,1.919553506650479,1696616971149858864,
0.07452982664108276,0.000495612621307373,1.9162413446851052,1696616971159980383,
-0.12691658735275269,0.30061519145965576,1.9252709556488268,1696616971169977595,
-0.45902061462402344,0.14745891094207764,1.9432920806068235,1696616971179875673,
-0.5894710421562195,0.1803932785987854,1.5843729714600785,1696616971192070873,
0.24611371755599976,0.5394112467765808,2.839244475238119,1696616971198922036,
0.3128269910812378,-0.029309630393981934,1.8104209726868523,1696616971209712102,
-0.4692333936691284,-0.27140045166015625,1.9389032202313718,1696616971219799096,
-0.6643401384353638,0.1742205023765564,1.9621255244426685,1696616971229800197,
-0.17406827211380005,0.13589298725128174,1.9250353538452596,1696616971240008886,
-0.501322865486145,0.07829737663269043,2.010120364413239,1696616971249747762,
-0.4151454567909241,0.29296714067459106,2.108652869256257,1696616971258966597,
0.38630765676498413,0.20232653617858887,1.4330277189631297,1696616971272457844,
-0.011689901351928711,0.17043715715408325,2.6203630126319704,1696616971279827324,
-0.615665078163147,0.6262256503105164,1.931147408813838,1696616971289866623,
-0.45240670442581177,0.42098796367645264,2.164744345107417,1696616971298891283,
-0.13480186462402344,-0.125957190990448,1.7830786338152234,1696616971309888300,
-0.7708294987678528,-0.134307861328125,2.1771996317811935,1696616971318932508,
-0.4397435188293457,0.2669520378112793,1.8058628736051328,1696616971329886148,
0.008893907070159912,-0.12433338165283203,1.9618332726868868,1696616971339941148,
-0.20948314666748047,-0.27342772483825684,1.555616335161309,1696616971352503286,
0.15689587593078613,0.17567777633666992,2.596132850659797,1696616971359954634,
0.26121121644973755,0.014882504940032959,1.9095169523229265,1696616971369978236,
0.1116756796836853,0.21967655420303345,1.8893673926502788,1696616971379996920,
-0.2696918249130249,0.3022702932357788,1.8777753851429573,1696616971389997802,
-0.24852842092514038,0.35115861892700195,1.8012328323921623,1696616971400386760,
-0.5378219485282898,0.06526583433151245,1.9524197644863461,1696616971410002345,
-0.609288215637207,0.12300467491149902,1.8771028103874896,1696616971420086348,
-0.023492276668548584,0.514716625213623,1.5667738735905934,1696616971432241404,
-0.17707055807113647,-0.04224991798400879,2.419343124575912,1696616971440111719,
-0.1485837697982788,-0.08734709024429321,1.8906227242280078,1696616971450135456,
-0.19461309909820557,0.19971203804016113,1.8755594453384798,1696616971460184913,
-0.35696059465408325,0.2986319661140442,1.8893536433226312,1696616971470116698,
-0.13394582271575928,-0.006057798862457275,1.8523632669299503,1696616971480237995,
0.24569183588027954,0.2639053463935852,1.8962405512383884,1696616971490140695,
0.182378351688385,0.23193180561065674,1.8714605403033573,1696616971500218183,
-0.01790332794189453,0.15283644199371338,1.61134760322714,1696616971511971181,
-0.5709625482559204,0.1988527774810791,2.310231925090849,1696616971520215631,
-0.612514853477478,0.4666557312011719,1.9010202043899493,1696616971530304819,
-0.6007925868034363,0.18913054466247559,1.9230754180803566,1696616971540332759,
-0.42447614669799805,-0.2879028916358948,1.941602728469735,1696616971550301849,
0.615920901298523,0.5633622407913208,1.9477697946341543,1696616971560251096,
-0.8299160003662109,0.21048295497894287,1.9290954642220812,1696616971570296410,
-0.34005606174468994,-0.2166910171508789,1.9292988265135675,1696616971580312836,
0.8434520959854126,0.5032683610916138,1.5656391215304857,1696616971592668746,
-0.11265665292739868,0.4384751319885254,2.541778937657112,1696616971600341324,
0.752424418926239,-0.03754764795303345,1.907090442937729,1696616971610599404,
0.06394016742706299,-0.028050720691680908,1.7225772600927787,1696616971621925154,
-0.41373175382614136,0.3960334062576294,2.2410342227856392,1696616971630618302,
-0.44802403450012207,0.2984089255332947,1.9681508470781084,1696616971640504459,
-1.08469820022583,0.1845574975013733,1.9593769720264018,1696616971650415497,
-0.2597634196281433,0.3603789210319519,1.9404204790623991,1696616971660449837,
0.11144906282424927,-0.0964309573173523,1.6774393996884571,1696616971672074685,
-0.15436780452728271,0.12728404998779297,2.32363752009088,1696616971680459830,
-0.7719016671180725,0.43677234649658203,1.909897888595967,1696616971690677295,
-0.24458211660385132,0.12156862020492554,1.5748355345142435,1696616971703072409,
-0.23413759469985962,-0.2789650559425354,2.626334825394929,1696616971710504988,
-0.16435861587524414,0.25059813261032104,1.9308510210194736,1696616971720581495,
0.46237558126449585,0.2555275559425354,1.9415042576910118,1696616971730533225,
0.16651320457458496,-0.07198518514633179,1.9130552461871981,1696616971740558678,
-0.11914348602294922,0.30573034286499023,1.6765139464258993,1696616971751957086,
-0.8164975643157959,0.3663724660873413,2.2213250805029614,1696616971760576059,
-0.7962603569030762,0.03141891956329346,1.9207301032851012,1696616971770603630,
-0.0755578875541687,0.40157657861709595,1.5619797644146354,1696616971782971630,
0.2678718566894531,0.430258572101593,2.4849863785239292,1696616971790745026,
0.48964834213256836,0.08669102191925049,2.1644272222941088,1696616971799670700,
-0.5654197335243225,0.00465703010559082,1.763828554004648,1696616971810638518,
-0.36052119731903076,0.3442092537879944,2.1512589757547955,1696616971819669010,
-0.029225826263427734,0.07398509979248047,1.5674620554585874,1696616971832015237,
-0.12811142206192017,-0.17636877298355103,2.2260777432234695,1696616971840683084,
0.12389260530471802,0.27983546257019043,1.9184692994252595,1696616971850701448,
0.32516711950302124,0.07043558359146118,1.5005827302332924,1696616971863423750,
0.09440368413925171,0.1479209065437317,2.6170612253219563,1696616971870698523,
-0.8180890083312988,0.24448758363723755,1.8980602048587525,1696616971880764838,
-0.4044811725616455,0.5638575553894043,1.9210452581241044,1696616971890760207,
-0.3822881579399109,0.3039894104003906,1.9143247942091597,1696616971900800683,
-0.5465861558914185,0.3527268171310425,1.6731564345035688,1696616971912286437,
-0.03259146213531494,0.19749069213867188,2.2683312188803266,1696616971920791497,
0.03679865598678589,0.0455394983291626,1.9250612466112136,1696616971930859064,
0.07378977537155151,0.22111964225769043,1.543022312924613,1696616971943463189,
-0.03817284107208252,0.1398380994796753,2.5408637654322983,1696616971951113658,
-0.16941028833389282,-0.030948996543884277,2.2008605594580506,1696616971959940883,
-0.48600876331329346,-0.06030094623565674,1.9424620312156464,1696616971969932374,
0.02915710210800171,0.3349648714065552,1.7403785485927061,1696616971981032049,
-0.08985882997512817,0.1862194538116455,1.6909729395710085,1696616971992434270,
-0.2958551049232483,0.16751855611801147,2.2543050330995227,1696616972001015024,
-0.06229066848754883,0.4590606689453125,1.942588774815719,1696616972010984733,
-0.37321317195892334,0.23515164852142334,1.4750016865535684,1696616972024077420,
-0.37321317195892334,0.23515164852142334,2.785369547424558,1696616972031030351,
-0.362318754196167,0.21937578916549683,1.9530680709052746,1696616972041044145,
-0.3297087550163269,0.18314963579177856,1.9676503981493827,1696616972051061145,
-0.07648122310638428,-0.18929576873779297,1.9773036686187875,1696616972061059874,
-0.014888644218444824,-0.07767200469970703,1.7799524437864982,1696616972072167309,
0.18102610111236572,0.17077457904815674,2.205000772709044,1696616972081079600,
0.05165588855743408,0.11946374177932739,1.9312387470172425,1696616972091134858,
-0.11202019453048706,0.09957915544509888,1.4544687848135864,1696616972104316464,
0.020429491996765137,0.358039915561676,2.7788302411394183,1696616972111141905,
-0.18499255180358887,0.23781543970108032,1.8109603185765188,1696616972121544678,
-0.3733212351799011,0.26489371061325073,1.9380505217488642,1696616972131270797,
0.050464749336242676,0.28124183416366577,1.8749472336759596,1696616972141365683,
-0.16815567016601562,0.014783680438995361,1.7436826581517353,1696616972152322210,
-0.1536899209022522,0.06100010871887207,2.169558173364219,1696616972161264524,
-0.307639479637146,0.13630366325378418,1.9437628417164958,1696616972171334001,
-0.37740039825439453,-0.11271971464157104,1.5656381805041215,1696616972183890136,
-0.11454975605010986,0.15961313247680664,2.6829038333379733,1696616972191209483,
-0.04769057035446167,0.2529956102371216,1.9398112884905188,1696616972201304091,
0.133816659450531,0.1324160099029541,1.9518580416098301,1696616972211278033,
0.15630418062210083,0.3831198811531067,1.9283392833852917,1696616972221287625,
0.28830260038375854,0.7135210037231445,1.672095444383708,1696616972232747275,
-0.23797261714935303,0.22131448984146118,2.223159153323665,1696616972241319424,
-0.6427174806594849,-0.04535728693008423,1.845990828046704,1696616972251630656,
-0.22973138093948364,0.5023049712181091,1.5147965558393983,1696616972264299302,
-0.3625333905220032,0.23401153087615967,2.776287966452135,1696616972271324668,
0.059626758098602295,-0.19775164127349854,1.9565623265993985,1696616972281414709,
-0.008733570575714111,-0.10806918144226074,1.9863963338340003,1696616972291407904,
-0.19226175546646118,-0.07084310054779053,1.9271141286570488,1696616972301710861,
-0.13011234998703003,-0.02012079954147339,1.9288443878439248,1696616972311952826,
-0.19452548027038574,0.49125123023986816,2.0624795741483477,1696616972321449785,
-0.18968713283538818,0.25288307666778564,1.9421683117384163,1696616972331467171,
0.0784456729888916,-0.11956137418746948,1.5207142886468423,1696616972344191223,
0.15501177310943604,0.4095630645751953,2.6628202212493073,1696616972351437008,
0.3462735414505005,0.5337258577346802,1.9081455098215019,1696616972361524482,
-0.30087292194366455,0.03643769025802612,1.916262409947693,1696616972371526793,
-0.8136669397354126,0.14746713638305664,1.9032821679479355,1696616972381609237,
-0.5823341608047485,0.4792810082435608,1.854651518351282,1696616972392036244,
-0.2206120491027832,-0.26503878831863403,2.041200509406743,1696616972401570771,
-0.008168280124664307,-0.04969984292984009,1.9494809361124232,1696616972411569375,
0.2044655680656433,0.34190404415130615,1.5291198365818015,1696616972424307326,
0.19284939765930176,0.12664282321929932,2.6754267542538686,1696616972431569045,
-0.3153614401817322,-0.08299422264099121,1.9255816833418935,1696616972441620543,
-0.00038546323776245117,0.36227965354919434,1.918924419189374,1696616972451663766,
0.020223140716552734,0.08359557390213013,1.9119536985567267,1696616972461662283,
-0.29257315397262573,0.012753307819366455,1.5805348488085649,1696616972473688490,
-0.11980545520782471,0.4473711848258972,2.6537944834039178,1696616972480831377,
0.07165771722793579,0.29948729276657104,1.7461645638623473,1696616972491690985,
-0.41214197874069214,-0.07641613483428955,1.8629400730982728,1696616972501916073,
-0.5790694952011108,0.18251162767410278,1.9704432097839761,1696616972511667023,
-0.11998540163040161,0.5146157145500183,2.133491491311245,1696616972520742027,
-0.4342713952064514,-0.06705552339553833,1.9339900340429983,1696616972530766596,
-0.2846975326538086,0.040186166763305664,1.7574749997032426,1696616972541758560,
0.11132895946502686,0.21817690134048462,1.762926512201724,1696616972552686377,
0.24495446681976318,0.05269533395767212,2.112070395367324,1696616972561789242,
0.34735220670700073,0.08487796783447266,1.9164886639203969,1696616972571813175,
0.2081792950630188,0.21499353647232056,1.5795616419387437,1696616972583946551,
0.19338905811309814,-0.18699342012405396,2.4264472667161883,1696616972591806699,
-0.16953569650650024,-0.06104612350463867,1.886732249093164,1696616972601856141,
-0.24975883960723877,0.6185678839683533,1.88571537952777,1696616972611873148,
-0.3098074197769165,0.27036964893341064,2.093315654371256,1696616972620892709,
-0.02245926856994629,-0.10020160675048828,1.7072291792831082,1696616972632008298,
0.30753833055496216,0.43690162897109985,2.1529818124339117,1696616972640923102,
0.17470866441726685,0.4671075940132141,1.9330258464073138,1696616972650936057,
-0.6266273856163025,0.10915255546569824,1.5099809446804433,1696616972663845947,
-0.9337306022644043,0.16101789474487305,2.4330297542957866,1696616972671937974,
-0.337179958820343,0.21490979194641113,1.958867920895099,1696616972682060429,
-0.2879568934440613,-0.31766849756240845,1.9854646542263195,1696616972692039558,
-0.18557584285736084,-0.009763002395629883,1.9634863081606642,1696616972702036864,
0.4129987359046936,0.2351311445236206,1.8818481910008755,1696616972712338764,
0.24297744035720825,-0.15916156768798828,1.9471113127912045,1696616972722167238,
-0.07530951499938965,0.08138841390609741,1.9046047897019667,1696616972732071570,
0.18814337253570557,0.4363706707954407,1.51618165240286,1696616972744338808,
0.23147070407867432,0.08252739906311035,2.3831280810980955,1696616972752069250,
-0.24062979221343994,0.12680155038833618,1.8283694464414197,1696616972762137218,
-0.3246110677719116,0.4162657856941223,1.854803961803155,1696616972772144569,
-0.3087765574455261,0.27865785360336304,1.8707659315846823,1696616972782203260,
-0.8363500237464905,-0.2689695358276367,1.9027881876760688,1696616972792240320,
-0.6072968244552612,0.17387628555297852,1.9466705113418525,1696616972802183466,
-0.12600523233413696,0.3476817011833191,1.943285771509432,1696616972812177113,
0.0484234094619751,-0.0659480094909668,1.5988507217639807,1696616972824252110,
0.20554381608963013,0.279538094997406,2.4251680402476734,1696616972832186821,
-0.09416526556015015,0.014565765857696533,1.9061406481647434,1696616972842265759,
0.20285099744796753,-0.19919002056121826,1.9012995828137673,1696616972852324913,
0.2997165322303772,0.4683282971382141,1.7835020362730103,1696616972862980241,
0.6004654169082642,0.6459038853645325,1.8996162868432107,1696616972872939015,
0.311352014541626,-0.30237525701522827,1.858890624920964,1696616972883095314,
-0.4400167465209961,-0.1487402319908142,2.1408439005273894,1696616972891912327,
-0.7103956937789917,0.57905513048172,1.7310084412114715,1696616972902896902,
-0.5171689987182617,0.22942107915878296,1.9190710370592774,1696616972912890261,
-0.44266074895858765,-0.10369318723678589,1.9129223118526781,1696616972922977602,
0.08972734212875366,0.1877213716506958,1.6318692374111807,1696616972934860880,
0.16857528686523438,-0.03229331970214844,2.3884768189092784,1696616972942970865,
-0.46175211668014526,-0.026732921600341797,1.9248133082084546,1696616972952998916,
-0.7572446465492249,0.556483805179596,1.9302513571838988,1696616972962992908,
-0.1214262843132019,-0.004392564296722412,1.9312793173957632,1696616972972944767,
0.2667135000228882,-0.16013747453689575,1.7312799308018545,1696616972983960863,
-0.33769410848617554,0.2572021484375,2.0991687962606687,1696616972993000774,
0.09208452701568604,0.2731638550758362,1.8794946468339617,1696616973003062453,
0.3184216022491455,0.0475957989692688,1.552803012907087,1696616973015217788,
0.13640892505645752,0.2698361277580261,2.407486908458854,1696616973023095021,
0.08558428287506104,0.2507237195968628,1.905675486100714,1696616973033196686,
-0.4853783845901489,-0.46349453926086426,1.92298047847409,1696616973043199377,
-1.085873007774353,0.17361831665039062,1.9271539908833648,1696616973053230151,
-0.47102057933807373,0.8308634161949158,1.7220628674600624,1696616973064505543,
0.22159481048583984,-0.06500917673110962,2.2443600040938603,1696616973073120593,
-0.07591617107391357,-0.29519224166870117,1.8878583536782394,1696616973083205228,
0.165208101272583,0.0997086763381958,1.9030232289544962,1696616973103145013,
-0.1157577633857727,0.1670195460319519,1.8527464358245553,1696616973113397667,
-0.08169978857040405,-0.17150086164474487,1.8657565946991663,1696616973123419550,
0.17007267475128174,-0.4234417676925659,1.891702279261062,1696616973133277993,
0.018355131149291992,0.33786463737487793,1.853385881985583,1696616973153382071,
-0.1986687183380127,0.05339932441711426,1.873814292556618,1696616973163279529,
-1.449303388595581,0.4841715097427368,1.4340985358471217,1696616973176232567,
-1.3224828243255615,0.5993313789367676,2.7283853451956728,1696616973183147223,
0.04263061285018921,0.2804955840110779,1.8635609135733364,1696616973193355762,
-0.09867393970489502,-0.16904020309448242,1.9167384538743666,1696616973203275489,
1.1652470827102661,0.23624032735824585,1.9491645136390554,1696616973213132317,
0.693790078163147,-0.11690717935562134,1.7983168988095668,1696616973223938993,
-0.4774531126022339,-0.0938410758972168,2.112962587542094,1696616973233157834,
-0.45671355724334717,0.20247822999954224,1.92493444555543,1696616973243231183,
-0.6108012199401855,-0.24874895811080933,1.643251290925293,1696616973254899742,
-0.10576778650283813,-0.08610022068023682,2.2925635677872114,1696616973263162964,
0.07993096113204956,0.41522324085235596,1.8653090971816961,1696616973273190959,
0.8013936281204224,0.1837889552116394,1.8299407317429177,1696616973283287695,
0.5621262192726135,0.008020401000976562,1.8583303210232358,1696616973293187951,
-0.7753509283065796,0.34685349464416504,1.7111533819497367,1696616973303956580,
-0.9019477367401123,0.37476837635040283,2.014532347466687,1696616973313200101,
-0.86851567029953,-0.1270466446876526,1.8810683815506994,1696616973323246712,
-0.11694514751434326,0.08293098211288452,1.6433798635601347,1696616973334930005,
0.17704564332962036,0.22351360321044922,2.348865967932034,1696616973343187686,
0.05633145570755005,-0.2504618167877197,1.9190962962845015,1696616973353295094,
-0.08963501453399658,0.12502914667129517,1.9225785034567693,1696616973363366303,
-0.2609859108924866,0.39981865882873535,1.9357854968530839,1696616973373250805,
-0.4639167785644531,-0.061605751514434814,1.6396296799789702,1696616973384877423,
-0.3741875886917114,0.07179909944534302,2.271468520166763,1696616973393215122,
0.22225719690322876,0.5063965320587158,1.87711392707704,1696616973403293437,
0.6198840141296387,-0.09973371028900146,1.5748239496401075,1696616973415233362,
0.20751512050628662,-0.2428538203239441,2.318522708329133,1696616973423377473,
-0.6405254006385803,0.4324995279312134,1.9001262288571397,1696616973433376379,
-0.5087985396385193,0.27686625719070435,1.8814969900942753,1696616973443442079,
-0.5567735433578491,-0.10167652368545532,1.9239009528450972,1696616973453394321,
-0.5980739593505859,0.29375988245010376,1.8101196037454712,1696616973464016696,
0.07985156774520874,0.20974421501159668,2.0776120348179625,1696616973473316167,
0.08171957731246948,-0.1691935658454895,1.9261157737945738,1696616973483375467,
-0.03707629442214966,0.5350514650344849,1.9358235929126562,1696616973503361148,
-0.02455151081085205,-0.5682655572891235,1.9215608655745136,1696616973513377261,
-0.09704864025115967,0.003057718276977539,1.9091150909100143,1696616973523380644,
0.09734892845153809,0.46435678005218506,1.8985119287938743,1696616973533456657,
0.3784390091896057,-0.3465988039970398,2.004008584544121,1696616973542934808,
0.09288477897644043,-0.018543720245361328,1.8266136787186393,1696616973553343018,
0.032080233097076416,0.5363665819168091,1.896864386468019,1696616973563405173,
-0.13487142324447632,0.09327572584152222,1.458424529866667,1696616973576625611,
-0.557458221912384,0.2718021273612976,2.8520322826188376,1696616973583405014,
-0.654560923576355,0.7428073287010193,1.9393573896431637,1696616973593418230,
-0.1350671648979187,0.0783616304397583,1.957373577602154,1696616973603455307,
-0.6559277772903442,0.018150627613067627,1.9913972113632767,1696616973613402237,
-0.6506673097610474,0.5318603515625,1.895396455996904,1696616973623961279,
0.4820772409439087,0.006844758987426758,2.1184950855016496,1696616973633452130,
0.029762625694274902,-0.29048633575439453,1.956550339976124,1696616973643676356,
-0.7549888491630554,0.2755546569824219,1.6235053934073413,1696616973655969219,
-0.6392196416854858,-0.21000409126281738,2.646198155017675,1696616973663481687,
-0.034086763858795166,-0.10086655616760254,1.9683104948689998,1696616973673517533,
-0.2341020107269287,0.5319775938987732,1.9423714486629362,1696616973683557640,
0.4478314518928528,-0.10828763246536255,1.9382298689449222,1696616973693496639,
0.688751757144928,-0.3532942533493042,1.7323684435815785,1696616973704435009,
-0.44985735416412354,0.2223382592201233,2.05619744802551,1696616973713551353,
-0.49508899450302124,0.3864727020263672,1.8622181052401108,1696616973723578941,
-1.0425678491592407,0.21519511938095093,1.87762267195709,1696616973743562410,
-0.0016624927520751953,0.18122082948684692,1.880398842291044,1696616973753609264,
0.3692176342010498,-0.34001225233078003,1.8903988335042274,1696616973763623864,
-0.15700763463974,0.18562215566635132,1.9004128049039153,1696616973773603320,
-0.5350791811943054,0.43316352367401123,1.8312683233178317,1696616973783958312,
-0.5433679223060608,-0.18846654891967773,1.9558013481542715,1696616973793656079,
-0.6293652057647705,0.2840791344642639,1.8954914714637123,1696616973803661333,
-0.07486146688461304,0.3949124813079834,1.5344703595161344,1696616973815972547,
0.5967978835105896,-0.16768783330917358,2.4312220434997043,1696616973823679887,
0.2592613697052002,0.03633087873458862,1.8737459541321442,1696616973833724018,
0.06544321775436401,0.32539230585098267,1.8677922693008722,1696616973843786844,
-0.14448726177215576,-0.10505944490432739,1.8722052054094822,1696616973853809024,
-0.2801492214202881,-0.09901487827301025,1.85081522208867,1696616973863951764,
0.17417997121810913,0.3678550720214844,2.128790022654448,1696616973872781243,
-0.3339802622795105,0.2546679377555847,2.071256492132225,1696616973881909083,
-1.0953024625778198,0.113827645778656,1.3004089194207078,1696616973896604658,
-0.0534588098526001,0.672714352607727,2.685684409029446,1696616973903837333,
-0.05812668800354004,0.3572322726249695,1.9762503041504034,1696616973913801147,
0.6283439993858337,0.03682965040206909,2.1681176436003375,1696616973922928802,
0.16905564069747925,0.32800936698913574,1.818231881191544,1696616973933857669,
-0.9138814210891724,-0.11251085996627808,1.904046201100456,1696616973944338336,
-0.41425108909606934,0.014258265495300293,2.330179045987948,1696616973952914209,
-0.5373973846435547,0.25449538230895996,1.9842464576381054,1696616973962925773,
0.1456785798072815,-0.08436590433120728,1.502900350806843,1696616973975996165,
0.37300431728363037,-0.4412500858306885,2.417618351516145,1696616973983956894,
0.1930527687072754,0.2670031189918518,1.8916522895683219,1696616973993980531,
0.0021506547927856445,0.18304502964019775,1.8552172841121357,1696616974004046721,
-0.5688431859016418,0.2295106053352356,1.8551994989630767,1696616974013999307,
-0.7879326343536377,0.4721100330352783,1.7790750570954101,1696616974024375524,
-0.4303463101387024,0.145979642868042,1.917909920195038,1696616974034042748,
0.039189279079437256,-0.09875363111495972,1.8686984263350763,1696616974044060200,
-0.08640396595001221,0.36046791076660156,1.545526372804798,1696616974056362604,
-0.2719816565513611,0.3610342741012573,2.4777985446220003,1696616974064126117,
-0.5814801454544067,-0.3435524106025696,1.921809221376627,1696616974074202850,
-0.8894039988517761,0.2430170774459839,1.9480359612070124,1696616974084217739,
0.08462226390838623,-0.14096641540527344,1.9294047719936545,1696616974094353867,
0.3982694745063782,0.32358235120773315,1.9563335207262114,1696616974104345445,
0.6999419927597046,0.4210118055343628,1.9996975390879634,1696616974114178708,
0.29187333583831787,-0.23636877536773682,1.9652528558984004,1696616974124251612,
-0.1570727825164795,0.2771052122116089,1.6809652107116193,1696616974135999793,
-0.12430661916732788,0.45727086067199707,2.3714883506058078,1696616974144231334,
0.003106236457824707,-0.21450728178024292,1.9249753976301185,1696616974154265910,
-0.22439652681350708,0.20170170068740845,1.9163066793457781,1696616974164257609,
-0.3217974901199341,0.26715391874313354,1.91037268122556,1696616974174227159,
-0.3194211721420288,-0.1738470196723938,1.8917594071159807,1696616974184302973,
-0.7464567422866821,0.17102110385894775,1.9156590321837241,1696616974194292850,
-0.8711766600608826,0.4198647141456604,1.931454310679734,1696616974204297144,
-0.4086287021636963,-0.005017638206481934,1.6098205527873515,1696616974216445345,
-0.4086912274360657,0.21725398302078247,2.4961704834303045,1696616974224295238,
-0.4373641014099121,0.29824298620224,1.940327925589787,1696616974234363137,
0.2523168921470642,-0.05867236852645874,1.93835442959431,1696616974244402474,
0.05172586441040039,0.07735508680343628,1.937235772680265,1696616974254357666,
-0.09086489677429199,0.33699530363082886,1.8914091487254314,1696616974264456837,
-0.12542760372161865,-0.3683964014053345,1.9040767158081229,1696616974274395649,
-0.3700805902481079,-0.08974629640579224,1.8617584734030341,1696616974284460131,
-0.2552106976509094,0.6275765895843506,1.5903517566668972,1696616974296181529,
0.19962453842163086,-0.030713796615600586,2.2565493025449563,1696616974304432629,
0.6606857180595398,0.031040191650390625,1.8444763087817622,1696616974314550708,
0.40321600437164307,0.5440575480461121,1.6624399167617725,1696616974325891669,
-0.27553892135620117,0.2641863226890564,2.2201975775844045,1696616974334501480,
-0.9007974863052368,0.3259562849998474,1.9376182963317174,1696616974344484188,
-1.0366135835647583,0.6456899642944336,1.9530546566788136,1696616974354508677,
-0.2306746244430542,0.1983993649482727,1.967117649319431,1696616974364533879,
-0.12727105617523193,-0.02141106128692627,1.7218159348592894,1696616974376006041,
-0.3352113962173462,0.1977006196975708,2.305848493506247,1696616974384523737,
-0.18759703636169434,0.2066584825515747,1.9490423297927215,1696616974394576679,
-0.3909562826156616,0.23719912767410278,1.5684651846234654,1696616974407042600,
-0.32780730724334717,0.1946125626564026,2.5932125303672273,1696616974414571653,
-0.3160468339920044,-0.1758873462677002,1.9414054167748558,1696616974424637234,
-0.2942582964897156,-0.16336894035339355,1.9568356178562485,1696616974434590540,
-0.39504414796829224,0.3122206926345825,1.9403756940356869,1696616974444628313,
-0.12484508752822876,-0.017914652824401855,1.696447806703963,1696616974456077073,
-0.007633984088897705,-0.19759821891784668,2.2541117253673373,1696616974464663406,
-0.0922885537147522,0.3681415915489197,1.9148255637529963,1696616974474709259,
-0.2850930094718933,0.35394734144210815,1.5229038964391184,1696616974487247807,
-0.3000584840774536,0.29334861040115356,2.527790191732858,1696616974494730174,
0.17106926441192627,0.6459318399429321,1.8698120837107244,1696616974504731425,
0.3330952525138855,0.20844674110412598,1.8608757307828303,1696616974514710905,
0.7016663551330566,0.07339096069335938,1.844521890283102,1696616974524785366,
0.3273944854736328,0.3385767340660095,1.5997251374135864,1696616974536434308,
0.14160025119781494,-0.1092265248298645,2.2190854124002484,1696616974544792935,
-0.4207736849784851,-0.3058469891548157,2.039339528230576,1696616974553842284,
-0.9474799633026123,0.2859669327735901,1.4530541142332078,1696616974566560909,
-0.40044111013412476,0.23043686151504517,2.24227481713519,1696616974574811738,
0.28227299451828003,-0.09452801942825317,1.8353831234530527,1696616974584857796,
0.17875540256500244,0.30427032709121704,1.8148866477067016,1696616974594992682,
-0.27089059352874756,0.1588125228881836,1.8727764572498287,1696616974604864346,
-0.8057419061660767,0.42235302925109863,1.6210986836549772,1696616974616370518,
-0.6613526940345764,0.7620964050292969,2.2099256352546477,1696616974624875411,
-0.13494884967803955,0.42220914363861084,1.8677863251805895,1696616974634968711,
0.07115554809570312,-0.053075313568115234,1.4862834955907267,1696616974647653340,
-0.1256955862045288,0.39071744680404663,2.5926838967169834,1696616974654966008,
0.08885937929153442,0.3214067220687866,1.9096519229730755,1696616974665003545,
-0.3883196711540222,0.126573383808136,1.9346012019047374,1696616974675042552,
-0.7017074823379517,0.29082489013671875,1.9615319495395436,1696616974685047855,
-0.27940833568573,0.011677384376525879,1.795416120592549,1696616974696002489,
-0.41100144386291504,0.3021162152290344,2.173262523940753,1696616974705014105,
-0.569366991519928,0.6855504512786865,1.9001468165737252,1696616974715292767,
0.10062289237976074,0.08616268634796143,1.4592491061101924,1696616974728650631,
-0.09704530239105225,0.018021702766418457,3.0246933428831637,1696616974735092056,
-0.4086722135543823,0.36746644973754883,1.946755027634745,1696616974745134764,
-0.08115482330322266,0.2162134051322937,1.9522779149656992,1696616974755139393,
-0.5905042886734009,0.08211755752563477,1.943381006549193,1696616974765137332,
-0.38439667224884033,0.248246967792511,1.734616666773113,1696616974776307996,
0.12141817808151245,-0.13676941394805908,2.1853804896636952,1696616974785159405,
0.17383205890655518,-0.057656705379486084,1.9099681711899616,1696616974795247039,
0.18836134672164917,0.5119369626045227,1.4930126145260383,1696616974808094264,
0.2178623080253601,0.07874453067779541,2.6767691137874476,1696616974815209780,
0.10314714908599854,-0.09670799970626831,1.8695054327722849,1696616974825289369,
-0.4471391439437866,0.45996731519699097,1.8755301502827892,1696616974835281733,
-0.6390374898910522,0.3237258195877075,1.8724257604732533,1696616974845291968,
0.08843964338302612,0.2701156735420227,1.6806218026401492,1696616974856472402,
0.057344019412994385,0.5075430274009705,2.148911880187222,1696616974865277439,
-0.08566218614578247,-0.04931086301803589,1.8628721695672001,1696616974875525172,
-0.6015182733535767,0.17857933044433594,1.5282090372330261,1696616974888107073,
-0.9449796676635742,0.7671407461166382,2.6787057286610794,1696616974895342159,
-0.3903287649154663,0.4961971044540405,1.9405335268284514,1696616974905368655,
-0.15937411785125732,0.10536080598831177,1.93261579997349,1696616974915452108,
-0.09733021259307861,0.14819836616516113,1.9651238140359522,1696616974925400613,
0.26664209365844727,0.04389733076095581,1.8391760808712465,1696616974936049382,
0.010316133499145508,0.22241222858428955,2.0936342394173133,1696616974945400899,
-0.4556375741958618,0.317523717880249,1.9367913544962025,1696616974955500394,
0.25581902265548706,-0.19524222612380981,1.5441796788308921,1696616974968106991,
0.07921987771987915,-0.18840152025222778,2.6310327475981032,1696616974975446964,
-0.4122855067253113,0.3181268572807312,1.9095185213694057,1696616974985479092,
-0.17950063943862915,0.10696876049041748,1.8760218564593074,1696616974995592208,
-0.38995176553726196,0.2470054030418396,1.8895168308513481,1696616975005555107,
-0.22215217351913452,0.48317939043045044,1.7635420971803322,1696616975016112747,
0.3970942497253418,0.26409482955932617,1.9674279134050072,1696616975025532829,
0.01809293031692505,0.4363180994987488,1.8019148211567195,1696616975035847466,
-0.5565976500511169,0.47611671686172485,1.4531179295904764,1696616975048729546,
-0.5136720538139343,0.11593019962310791,2.7528251216351114,1696616975055604282,
-0.48987287282943726,0.4308772087097168,2.0579032593765505,1696616975064904672,
0.19445133209228516,-0.03862428665161133,1.7734236697858847,1696616975075801717,
0.02585470676422119,0.09431922435760498,1.9656294726318015,1696616975085686706,
-0.41270142793655396,0.4469038248062134,1.8785678623366242,1696616975096041225,
-0.49499374628067017,0.38324153423309326,2.0228372612409395,1696616975105643401,
-0.3114734888076782,0.3352698087692261,1.8981204900822366,1696616975115852121,
0.0239219069480896,0.264784574508667,1.566432346366918,1696616975128180664,
0.354572057723999,-0.24884116649627686,2.564065798976579,1696616975135678785,
0.20392721891403198,0.0726822018623352,1.9087154890807743,1696616975145699556,
-0.24108994007110596,0.4224136471748352,1.8993381876600401,1696616975155708173,
-0.03891432285308838,-0.05362725257873535,1.868262723105115,1696616975165762843,
-0.23816746473312378,0.044262588024139404,1.6956209277397165,1696616975176713374,
-0.067493736743927,0.45454496145248413,2.04797954637063,1696616975185740652,
0.41814982891082764,0.14711493253707886,1.852447332945672,1696616975195768943,
0.45370179414749146,0.4649919271469116,1.499884879645234,1696616975208226110,
-0.22323322296142578,0.46578478813171387,2.4779795615890348,1696616975215782499,
-0.43353891372680664,-0.011848211288452148,1.8672707463361797,1696616975225837471,
-0.5360828042030334,0.44013500213623047,2.0893821474549337,1696616975234877129,
-0.917393147945404,0.5606576204299927,1.9010436357002898,1696616975244893316,
-0.3659401535987854,0.11356031894683838,1.7195107240932896,1696616975256049816,
-0.1055828332901001,0.22833770513534546,1.9576049407935339,1696616975265888119,
-0.18811267614364624,0.20723456144332886,1.918944780608861,1696616975275948950,
0.09407579898834229,0.18283742666244507,1.549779604915954,1696616975288418509,
-0.22929656505584717,0.789896547794342,2.4757838563138077,1696616975296230319,
-0.5834280252456665,0.4711407423019409,2.005836036045598,1696616975305977178,
-0.033000648021698,-0.02204066514968872,1.968186809572352,1696616975316053605,
0.06445878744125366,0.2170594334602356,2.003250212579431,1696616975326010595,
0.027209460735321045,0.24192631244659424,1.986669204359177,1696616975336070232,
0.30315935611724854,-0.12927335500717163,1.9577881149987817,1696616975346226363,
-0.09595805406570435,0.11939400434494019,1.9925367723812868,1696616975356068274,
-0.142450213432312,0.024266719818115234,1.5488609924014398,1696616975368587775,
-0.3559432029724121,0.015818536281585693,2.5270078044529862,1696616975376190713,
-0.42643553018569946,0.5836950540542603,1.9178766906074032,1696616975386099250,
0.2188560962677002,0.2887134552001953,1.8473777442104664,1696616975396296495,
0.4724777936935425,-0.09964108467102051,1.8999154689768276,1696616975406154736,
0.09463047981262207,0.38252896070480347,1.8637148462797317,1696616975416219351,
-0.6420305967330933,0.4306942820549011,1.898234768052957,1696616975426162497,
-0.5437020063400269,0.3792584538459778,1.8563301109597825,1696616975436379700,
-0.8387984037399292,0.4559687376022339,1.6295826341906314,1696616975448082917,
-0.37271803617477417,-0.10891008377075195,2.3667939388547627,1696616975456192398,
0.18262571096420288,-0.022868990898132324,1.9019506710324694,1696616975466262822,
0.06950902938842773,0.5158677697181702,1.897511808424546,1696616975476264267,
-0.09904342889785767,0.5750718116760254,1.8588343377842047,1696616975486415721,
-0.5001603364944458,0.21721100807189941,1.817957377145623,1696616975496801913,
-0.41886645555496216,0.2487233281135559,2.017819941055901,1696616975506291195,
-0.3140642046928406,0.34589678049087524,1.95339905084852,1696616975516300240,
0.0290033221244812,0.3149797320365906,1.671798509785672,1696616975528100317,
-0.13496243953704834,0.17111027240753174,2.4065562560615557,1696616975536310846,
-0.06765967607498169,-0.19945210218429565,1.9572367508427704,1696616975546364588,
0.0519830584526062,-0.0950133204460144,1.9419510028378681,1696616975556438030,
-0.3756118416786194,0.31897419691085815,1.9562792835259193,1696616975566388926,
-0.241604745388031,0.22017031908035278,1.921802090198911,1696616975576437056,
0.10581189393997192,0.09237194061279297,1.9274952726602796,1696616975586365065,
0.16979217529296875,0.35976171493530273,1.8713991067843947,1696616975596522637,
0.3238612413406372,0.2987017035484314,1.6361012933386994,1696616975608097529,
0.39233118295669556,0.2573176622390747,2.2778176353005244,1696616975616426285,
0.4475647807121277,0.4342467784881592,1.8985295846711083,1696616975626432976,
-0.44753414392471313,0.06552910804748535,1.884553911444349,1696616975636458926,
-0.6546210646629333,0.22450196743011475,1.8765218123899567,1696616975646495870,
-0.6157436966896057,0.3882322907447815,1.8655579250415018,1696616975656531779,
-0.5280077457427979,0.02036285400390625,1.877331620078558,1696616975666469711,
0.416009783744812,0.3360607624053955,1.8594109629404412,1696616975676495970,
0.7639400959014893,0.1865742802619934,1.5654913429041897,1696616975688453422,
-0.10988771915435791,0.2933184504508972,2.3456669961909937,1696616975696511007,
-1.0528335571289062,0.6318296790122986,1.8926658295092724,1696616975706643021,
-1.124393343925476,0.31464552879333496,1.9562469655223087,1696616975716630824,
-0.6267107725143433,-0.044842541217803955,1.9919498232313606,1696616975726583904,
-0.06068825721740723,0.3266149163246155,1.9774758065982068,1696616975736648505,
0.5516250729560852,0.11698269844055176,1.9919865589620225,1696616975746602920,
0.26132696866989136,0.007033169269561768,1.963819492443538,1696616975756653187,
-0.06905114650726318,0.47265779972076416,1.7094161319167531,1696616975768122392,
-0.052845895290374756,0.17470240592956543,2.282715389029268,1696616975776641469,
-0.4795415997505188,0.20824211835861206,1.865776397773718,1696616975786962833,
-0.28021323680877686,0.43006086349487305,1.9588467025163496,1696616975796731978,
0.4582616090774536,-0.04177069664001465,1.9279279672148628,1696616975806680265,
0.5548756122589111,0.09722918272018433,1.8830337667332768,1696616975816861558,
0.1667366623878479,0.45394885540008545,1.9353917315231983,1696616975826702189,
0.004302620887756348,-0.097950279712677,1.8839087219764536,1696616975836733029,
-0.21723335981369019,0.10870492458343506,1.6061130218392055,1696616975848390994,
-0.3177067041397095,0.3164883255958557,2.224809315994322,1696616975856750814,
0.05706673860549927,0.059223055839538574,1.852948676269481,1696616975866771456,
0.37593382596969604,0.5104283690452576,1.85172342531165,1696616975876825594,
0.0691756010055542,0.4972788691520691,1.8458130205551893,1696616975887002672,
-0.1774817705154419,0.033307671546936035,1.9251659365399378,1696616975896855619,
-0.5742883086204529,0.4487367868423462,1.9171635060801058,1696616975906832243,
-1.1269913911819458,0.553139865398407,2.139277137122062,1696616975915882305,
-0.45970839262008667,0.309894323348999,1.699384925814111,1696616975927349913,
-0.10608494281768799,0.2823007106781006,2.2890654183553627,1696616975935904093,
-0.08249938488006592,-0.04282081127166748,1.786025454410425,1696616975946983132,
0.24953919649124146,0.22920286655426025,1.5774282482785749,1696616975959582912,
-0.16624236106872559,0.6778249144554138,2.62909129373249,1696616975967130810,
-0.3367314338684082,0.017315924167633057,1.991538851783483,1696616975977076954,
-0.3542729616165161,-0.18618935346603394,1.9812013968126285,1696616975987042201,
-0.40465545654296875,0.28256720304489136,1.9761361412938394,1696616975997037702,
0.11719560623168945,0.18401288986206055,1.721878079076216,1696616976008538667,
0.5910967588424683,0.46925246715545654,2.3060910784734765,1696616976017096740,
-0.1712653636932373,0.0894281268119812,1.9484571793453216,1696616976027191925,
-0.46767354011535645,0.6136279106140137,1.911296965559207,1696616976047451426,
-0.014118373394012451,0.13636082410812378,1.9129268613376211,1696616976057347299,
-0.08565294742584229,-0.060351788997650146,1.8997116384170867,1696616976067165630,
0.23576980829238892,-0.12038201093673706,1.8408921344772646,1696616976077197688,
0.35275936126708984,0.1365678906440735,1.6937240112484346,1696616976088128878,
-0.5756735801696777,0.304429829120636,2.0487511001372827,1696616976097155242,
-0.4344266653060913,0.11145949363708496,1.803506831833022,1696616976107385121,
0.06227755546569824,-0.023455560207366943,1.496657029795323,1696616976119718558,
-0.1257878541946411,0.3206670880317688,2.4367153408478073,1696616976127265719,
-0.218036949634552,0.27590590715408325,1.8359422849525986,1696616976137316646,
-0.015172243118286133,0.30870842933654785,1.8520211073976605,1696616976147356902,
-0.48605597019195557,0.5954676270484924,1.8918471606986378,1696616976157269829,
-0.395208477973938,0.6457273960113525,1.7137398123382133,1696616976168404858,
-0.3209523558616638,0.4766102433204651,2.1777298478394567,1696616976177310017,
-0.14077478647232056,0.36324548721313477,1.9487700067965426,1696616976187353373,
0.20556306838989258,0.020362377166748047,1.5264592566189399,1696616976200240914,
-0.0027727484703063965,-0.051952064037323,2.765582809243941,1696616976207331947,
-0.38843101263046265,0.27907228469848633,1.933325066339538,1696616976217414593,
-0.1438443660736084,-0.007660865783691406,1.9516652803597179,1696616976227375022,
-0.13217079639434814,0.10326492786407471,1.8975860769262543,1696616976237589339,
-0.14087516069412231,0.35084694623947144,1.8364828108360738,1696616976248192225,
0.2693134546279907,0.11368000507354736,2.1130104660043334,1696616976257503460,
0.2232518196105957,0.14902812242507935,1.980344827402566,1696616976267463907,
-0.12837940454483032,0.13767272233963013,1.5284597145515395,1696616976280335463,
-0.04387015104293823,-0.05716896057128906,2.5141420229670475,1696616976288136427,
-0.06060194969177246,0.48208725452423096,1.9274733022349329,1696616976298194394,
-0.2556673288345337,0.32232534885406494,1.9290820562514432,1696616976308145739,
-0.22111427783966064,-0.19310921430587769,1.9075765602537778,1696616976318137337,
-0.23011767864227295,0.2281617522239685,1.816232724923714,1696616976328554883,
-0.022568821907043457,0.2549627423286438,1.9528758091682825,1696616976338184913,
0.22596150636672974,0.2119852900505066,1.8701046333420643,1696616976348162240,
-0.2690884470939636,0.3334607481956482,1.5124704342107587,1696616976360419479,
-0.448278546333313,-0.0637933611869812,2.3558343983229455,1696616976368296064,
0.32289040088653564,0.16132789850234985,1.8762814721326997,1696616976378207899,
0.11263251304626465,0.6889346241950989,1.866458343475335,1696616976388186440,
-0.0418853759765625,0.10215288400650024,1.86600460475543,1696616976398219186,
-0.10978251695632935,0.10427123308181763,1.8414295560426601,1696616976408445318,
-0.66899573802948,0.23746252059936523,1.936452071735215,1696616976418231086,
-0.26973414421081543,0.1451764702796936,1.8946244006465636,1696616976428270559,
-0.192094624042511,0.7733216881752014,1.581843714796554,1696616976440287577,
-0.11334162950515747,0.4555057883262634,2.411019343807663,1696616976448257210,
0.2737741470336914,0.0692441463470459,1.9466002118530101,1696616976458281852,
0.04740726947784424,0.3630790114402771,1.9784218061749776,1696616976468266195,
-0.29353636503219604,0.2532328963279724,1.9782827354579455,1696616976478352716,
-0.17828601598739624,0.14381259679794312,2.011433947058535,1696616976488276943,
-0.5184407830238342,0.2169693112373352,1.9789605058905082,1696616976498287491,
-0.5046167373657227,-0.24432015419006348,1.9745390637277354,1696616976508276756,
0.24974972009658813,0.35750705003738403,1.5252256503784305,1696616976521065389,
0.6886544227600098,0.431704044342041,2.7059994404638026,1696616976528242885,
0.15239226818084717,-0.0031034350395202637,2.0418680276172556,1696616976537819047,
-0.6525872945785522,0.3320222496986389,1.9620317988916514,1696616976547855049,
-0.8952416181564331,0.22644001245498657,1.990398564178103,1696616976557808467,
-0.34212297201156616,0.1795055866241455,1.89415605774256,1696616976568311272,
0.0029277801513671875,0.48986315727233887,2.062576614340854,1696616976577880631,
0.03561443090438843,-0.325284481048584,2.1495581828527417,1696616976586995479,
0.24056804180145264,-0.08681774139404297,1.4684537444488084,1696616976600285775,
-0.0024827122688293457,0.6313542723655701,2.8785620347937515,1696616976606978119,
-0.11310172080993652,0.09645634889602661,1.7247939926058242,1696616976618029356,
-0.5451411008834839,0.1917053461074829,1.8767865758734696,1696616976628092684,
-0.0532609224319458,0.3720061779022217,1.8864335610397396,1696616976638013204,
0.31791025400161743,-0.05458289384841919,1.7724416166680437,1696616976648649627,
0.35147517919540405,0.2847214937210083,2.005973159490535,1696616976658080450,
-0.14456987380981445,0.2132473587989807,1.8735894663212296,1696616976668116045,
-0.15050232410430908,-0.2755415439605713,1.5385517939658848,1696616976680360208,
-0.16485857963562012,0.35650819540023804,2.427208603479109,1696616976688103510,
-0.8706585764884949,0.18531054258346558,1.87064183608992,1696616976698147094,
-0.18226981163024902,0.15239399671554565,1.8722182052513925,1696616976708175316,
0.09444010257720947,0.5396386981010437,1.8696628401426287,1696616976718108180,
-0.03280752897262573,0.14940673112869263,1.8448837525247472,1696616976728167980,
0.06296759843826294,0.3480373024940491,1.8791069128415705,1696616976738156278,
-0.5591714978218079,0.5380789637565613,1.8933942777337283,1696616976748180864,
-0.7356266975402832,0.1471443772315979,1.5795801602298072,1696616976760415633,
-0.5722531080245972,0.28158849477767944,2.5041945660272424,1696616976768199418,
-0.343315064907074,0.1962154507637024,1.9367017345319357,1696616976778244634,
0.2909146547317505,-0.25081390142440796,1.9412383021280006,1696616976788273008,
0.4853876829147339,0.46755659580230713,1.9372500670669635,1696616976798252283,
-0.16093701124191284,0.3184032440185547,1.8593871739218284,1696616976808596388,
0.09072834253311157,0.25694864988327026,1.98995102150977,1696616976818274395,
-0.29846757650375366,0.6951733827590942,1.9139011775169061,1696616976828334185,
-0.5723216533660889,-0.04985380172729492,1.5503610760406539,1696616976840846204,
0.0042035579681396484,-0.040042340755462646,2.613989212708528,1696616976848326471,
-0.20879584550857544,0.4032312035560608,1.9536028337689646,1696616976858333795,
-0.06250947713851929,-0.0006792545318603516,1.935050803678967,1696616976868460674,
0.0287783145904541,0.2752249240875244,1.9836673403025162,1696616976878343319,
-0.6499115824699402,0.2836056351661682,1.957636848489769,1696616976888380030,
-0.28409039974212646,-0.20031017065048218,1.9710665216467087,1696616976898365190,
-0.018008649349212646,0.6467952728271484,1.915469498119438,1696616976908557590,
-0.24480891227722168,0.19829118251800537,1.5856538020388085,1696616976920821037,
0.49641162157058716,-0.14210140705108643,2.579264761068662,1696616976928408010,
0.22149205207824707,0.3918313980102539,1.930217697258043,1696616976938479449,
-0.15308457612991333,0.15068680047988892,1.936770119551209,1696616976948482404,
-0.27111631631851196,0.06972664594650269,1.937567403612171,1696616976958459189,
-0.6729759573936462,0.2560197114944458,2.0311084818284515,1696616976967906536,
-0.4024991989135742,-0.2331647276878357,1.8063063375993655,1696616976978507009,
0.375216007232666,0.36898791790008545,1.8838888112306669,1696616976988583550,
0.4892887473106384,0.7453158497810364,1.6084004198442499,1696616977000297644,
0.05311518907546997,-0.15265792608261108,2.2887683408006345,1696616977008565909,
-0.8766134977340698,0.36349719762802124,1.810877201080013,1696616977019055316,
-0.27763450145721436,0.11277902126312256,1.9375449273469874,1696616977028883024,
0.45779138803482056,0.4761947989463806,1.9376947170491192,1696616977038674141,
-0.07491642236709595,-0.13033413887023926,1.881812523703527,1696616977048642261,
-0.27652353048324585,0.13232523202896118,1.8778638759680446,1696616977058694410,
-0.19218546152114868,0.8897840976715088,1.9322461535172601,1696616977068581434,
-0.7018932104110718,0.19910818338394165,1.5949801097813168,1696616977080646194,
-0.14769089221954346,0.23198366165161133,2.4298307541245103,1696616977088628721,
-0.33133113384246826,0.1521283984184265,1.925586515865424,1696616977098693948,
-0.28372621536254883,-0.012158036231994629,1.9301888661842794,1696616977108716959,
0.0038933157920837402,0.8110972046852112,1.9565022643536707,1696616977118694860,
-0.33265382051467896,0.14274418354034424,1.9726323676559214,1696616977128689248,
-0.45771926641464233,-0.40557992458343506,1.993480795277719,1696616977138705100,
0.04614228010177612,0.5383684039115906,2.001763252534761,1696616977148740184,
-0.016102910041809082,0.2018246054649353,1.6365742136479564,1696616977160868980,
0.17389637231826782,0.38622140884399414,2.4868512913329424,1696616977168750404,
-0.3848753571510315,0.2932394742965698,1.9228100261485161,1696616977178848274,
-0.6547471284866333,-0.3616071939468384,1.9459024512948764,1696616977188830192,
-0.4223986268043518,0.8293706774711609,1.9607542835299154,1696616977198861909,
-0.44525039196014404,0.5101743936538696,1.9341465912909201,1696616977209063033,
0.030348122119903564,-0.32362842559814453,1.9902155155665417,1696616977218964401,
0.09351575374603271,0.018907368183135986,1.9871766884553783,1696616977228856670,
-0.40726518630981445,0.0707329511642456,1.6712632745135765,1696616977240544902,
-0.7051560282707214,0.4182415008544922,2.644177912507827,1696616977247941586,
0.010692417621612549,0.754749059677124,1.7554615158535627,1696616977259067342,
-0.11116844415664673,-0.27085793018341064,1.5808396595658156,1696616977271379874,
0.08375847339630127,0.21960294246673584,2.973466155274981,1696616977277958955,
0.053421616554260254,0.40335553884506226,1.772848099908808,1696616977288978564,
0.017035305500030518,0.023302972316741943,2.1505537700079183,1696616977298014775,
-0.10900318622589111,0.2549015283584595,1.7587243292743826,1696616977309013848,
-0.21471208333969116,-0.08631247282028198,1.6810045849023378,1696616977320439147,
-0.42778444290161133,0.2567189931869507,2.244778138218032,1696616977329027793,
-0.3828868269920349,0.7674862742424011,1.9384254464133364,1696616977339040811,
0.03135251998901367,0.1584051251411438,1.519940323651148,1696616977351801729,
0.015328288078308105,0.030800044536590576,2.6780817087825555,1696616977359072700,
0.033638954162597656,0.42643433809280396,1.9413841383877557,1696616977369116257,
-0.1272152066230774,0.09472334384918213,1.9487913335646518,1696616977379135202,
-0.5000889301300049,0.3855043649673462,1.957741056308912,1696616977389145813,
-0.35074537992477417,0.18414753675460815,1.7332023724100043,1696616977400393033,
-0.16523510217666626,-0.10635370016098022,2.2093074797867676,1696616977409150829,
0.3536819815635681,0.6312879920005798,1.8754817102786296,1696616977419377517,
0.22794485092163086,0.2246132493019104,1.5304907749852759,1696616977431832715,
-0.18551325798034668,0.26805371046066284,2.6124562133461366,1696616977439198876,
-0.6369041204452515,0.63681560754776,1.9431820454261464,1696616977449229609,
-0.8269008994102478,0.08032643795013428,1.9297142885812537,1696616977459419689,
-0.10270494222640991,0.36350494623184204,2.000781466795362,1696616977469273269,
-0.015611588954925537,0.15464454889297485,1.5894726317243626,1696616977481638045,
0.01970130205154419,-0.13648778200149536,2.573102868440096,1696616977489292483,
-0.4512404799461365,0.6611101031303406,1.957080544047364,1696616977499410883,
-0.6679995656013489,0.12141948938369751,1.5017713556637484,1696616977512589066,
-0.2414599061012268,0.24534004926681519,2.9446001005822975,1696616977519307077,
-0.16948646306991577,0.6178779006004333,1.9559721505089618,1696616977529375723,
0.0810539722442627,-0.14294737577438354,1.9726483088010784,1696616977539355252,
-0.06647878885269165,0.6525182723999023,1.937553725608827,1696616977549600368,
-0.5526436567306519,0.3715054392814636,1.8380084803696823,1696616977560471249,
-0.19928836822509766,-0.1340668797492981,2.2672603693446245,1696616977569378966,
-0.3337368369102478,0.4619738459587097,2.0102771661588124,1696616977579445225,
-0.7542630434036255,0.08692008256912231,1.5593517088896887,1696616977592398934,
-0.08292227983474731,0.30176758766174316,2.8667834984102445,1696616977599431953,
-0.4557110071182251,0.5889951586723328,1.9965795400378223,1696616977609467600,
0.05682629346847534,-0.33576226234436035,1.990252711478674,1696616977619506604,
0.7353071570396423,0.4379975199699402,2.0062643585315167,1696616977629470293,
-0.37281638383865356,0.42725270986557007,1.7641800233107603,1696616977640749284,
0.0246579647064209,0.10245943069458008,2.26907096390595,1696616977649468554,
-0.021530330181121826,0.5393046140670776,1.9275812752490442,1696616977659622727,
0.09495401382446289,-0.3238566517829895,1.4775792809752475,1696616977672718820,
0.6477075219154358,0.1986018419265747,2.812761240689239,1696616977679520167,
0.13198840618133545,0.6505692601203918,1.8683029569755099,1696616977689583665,
0.06600552797317505,-0.0828520655632019,1.8522877584656694,1696616977699613191,
-0.5112935900688171,0.3465479016304016,1.857478208314711,1696616977709567119,
-0.12574386596679688,0.18295252323150635,1.7045380592126345,1696616977720446623,
-0.0028092265129089355,-0.06694996356964111,2.0558434363828493,1696616977729602010,
-0.24232304096221924,0.6255850791931152,1.8720807945150146,1696616977739722973,
-0.35833126306533813,0.15351849794387817,1.4706383679094488,1696616977752607826,
-0.37441664934158325,0.1430896520614624,2.6946158027766516,1696616977759652135,
-0.3239095211029053,0.46880263090133667,1.879982246145602,1696616977769711351,
-0.5933984518051147,0.21733707189559937,1.8805812193761908,1696616977779731649,
-0.20185089111328125,0.6647018790245056,1.8678655059633198,1696616977789731800,
-0.02670586109161377,0.20664286613464355,1.6583417886232255,1696616977800865813,
-0.1454765796661377,0.07681035995483398,2.0708989736263663,1696616977809769943,
0.23679184913635254,0.6278648376464844,1.851502227636389,1696616977819757890,
-0.3189798593521118,0.24057334661483765,1.4851853363660223,1696616977832247039,
-0.5694591403007507,0.2650884985923767,2.4586670110753452,1696616977839789772,
-0.3099941611289978,0.259427011013031,1.8415891195031535,1696616977849842787,
-0.24710679054260254,-0.15958881378173828,1.854582241441264,1696616977859890744,
-0.06498390436172485,0.5959140062332153,2.0752489808566943,1696616977868896874,
0.09714889526367188,0.501954197883606,1.6391347065073805,1696616977880272729,
-0.38679778575897217,0.23688024282455444,1.9518843884247787,1696616977889871048,
-0.4631407856941223,0.4700372815132141,2.082436148700092,1696616977898922247,
-0.22437769174575806,0.13193321228027344,1.4223254471865598,1696616977912301803,
-0.0584561824798584,0.493741512298584,2.897904138398668,1696616977918910425,
-0.2354784607887268,0.4534454345703125,1.7276768533042248,1696616977929946761,
0.08386999368667603,-0.10595488548278809,1.8965339037486157,1696616977939969963,
0.2252907156944275,0.5860296487808228,2.1008120548672817,1696616977948997336,
-0.4855644702911377,0.43911129236221313,1.6144605796454807,1696616977960722358,
-0.26851922273635864,0.5129566192626953,2.012496720236624,1696616977970108773,
-0.09087908267974854,0.3581969738006592,1.8919459890769184,1696616977980091502,
0.022647440433502197,-0.05857384204864502,1.4976405630332323,1696616977992798726,
-0.40231943130493164,0.3388112187385559,2.5351217023380643,1696616978000363567,
-0.45543086528778076,0.05336451530456543,1.9419477310643967,1696616978010278459,
-0.4869920611381531,0.33593833446502686,1.9409639731785793,1696616978020234033,
-0.08662748336791992,-0.0025838613510131836,1.9188089258813381,1696616978030301225,
0.1609857678413391,0.8230888843536377,1.9036595196313428,1696616978040435687,
0.060777485370635986,0.6599698662757874,1.9828421990008507,1696616978050135394,
-0.23502540588378906,-0.1413356065750122,1.9055698902171254,1696616978060182760,
-0.46552491188049316,0.503677487373352,1.5688201584421269,1696616978072398283,
-0.5164998173713684,0.4081524610519409,2.480280054573815,1696616978080159278,
-0.08672201633453369,0.5416232943534851,1.9162283841999164,1696616978090223455,
-0.3334742784500122,0.25155967473983765,1.9166488563072768,1696616978100249627,
-0.03581511974334717,-0.2892780303955078,1.9095600495742022,1696616978110266165,
0.23984432220458984,0.7523407340049744,1.800140178241465,1696616978120869733,
-0.665206789970398,0.4665601849555969,2.0350589649413755,1696616978130252499,
-0.38158077001571655,0.1261657476425171,1.9130825330681307,1696616978140244720,
-0.25676679611206055,0.3133457899093628,1.557548070339124,1696616978152551385,
0.18551397323608398,0.007446229457855225,2.4888257666297986,1696616978160284606,
0.35934001207351685,0.8161402344703674,1.9245592848601571,1696616978170338668,
-0.33459270000457764,0.3993603587150574,1.924031389874022,1696616978180385734,
-0.32855117321014404,-0.08654040098190308,1.9264456273121289,1696616978190402223,
-0.697351336479187,0.7527893781661987,1.8755772776315576,1696616978200737410,
-0.10855871438980103,0.454190731048584,2.0110160173992893,1696616978210368084,
0.34969186782836914,0.4477345943450928,1.9331561758099873,1696616978220392382,
0.15219473838806152,0.3266948461532593,1.590453853612745,1696616978232554482,
-0.04118722677230835,-0.05096149444580078,2.4675994401328842,1696616978240398581,
-0.5479839444160461,0.849468469619751,1.938170832759755,1696616978250430385,
-0.7183642387390137,0.41195178031921387,1.9382356757647154,1696616978260460557,
-0.5398439168930054,0.08620041608810425,1.954642788500151,1696616978270435136,
0.16908526420593262,0.1858905553817749,1.9413514097914761,1696616978280467747,
0.3054942488670349,0.10722976922988892,1.9416705875197504,1696616978290474427,
0.05144864320755005,0.684601366519928,1.937173682880577,1696616978300492596,
-0.07593673467636108,0.39213788509368896,1.5374217065675484,1696616978313033600,
-0.7146112322807312,0.1994379162788391,2.5707775405235425,1696616978320506503,
-0.4786108732223511,0.5077061057090759,1.9074870455339985,1696616978330610801,
-0.17053061723709106,0.26760566234588623,1.9377551181526926,1696616978340554890,
-0.07133561372756958,0.2836633324623108,1.9228271319331327,1696616978350542245,
0.08445519208908081,0.21293920278549194,1.8527148452870943,1696616978360834123,
-0.4913937449455261,0.16028159856796265,1.9431130486775257,1696616978370603578,
-0.7264049053192139,0.6955356597900391,1.8520977010980009,1696616978380856256,
-0.18953931331634521,0.3474156856536865,1.643996916449228,1696616978392411837,
0.22769218683242798,0.2678692936897278,2.32652377010967,1696616978400614547,
0.2854840159416199,0.3883574604988098,2.0585149735725388,1696616978409942036,
-0.09413570165634155,0.06715494394302368,1.449233328991214,1696616978423226628,
-0.18143624067306519,0.40680646896362305,2.5639897562308747,1696616978430705152,
-0.6273994445800781,0.2970908284187317,1.8552709935166292,1696616978440971712,
-0.40093350410461426,0.37720149755477905,1.945051171151355,1696616978450749681,
0.14953255653381348,0.5669529438018799,1.9044908758712142,1696616978460750681,
0.27207571268081665,0.07347708940505981,1.6506247390931839,1696616978472309390,
0.2846890091896057,0.5548745393753052,2.2633194468621345,1696616978480759266,
-0.3992959260940552,0.3931853771209717,2.091849178715018,1696616978489915485,
-0.5759974718093872,0.2794509530067444,1.4423306112404515,1696616978503246706,
-0.7732716798782349,0.4446067810058594,2.5409796803688143,1696616978510833725,
-0.3661794662475586,-0.07153326272964478,1.9356152801999014,1696616978520814085,
0.4738950729370117,0.29526567459106445,1.9287733935217943,1696616978530862045,
0.13133037090301514,0.4390690326690674,1.937280302087264,1696616978540850729,
0.08516848087310791,0.32070595026016235,1.659837873908705,1696616978552493111,
-0.20712363719940186,0.8859772682189941,2.5927102778392475,1696616978559939154,
-0.36870259046554565,0.2723236083984375,1.9387110994161338,1696616978569931417,
-0.12463182210922241,0.42188525199890137,1.4442280588720786,1696616978583450855,
-0.32703179121017456,0.5490762591362,2.610343702480245,1696616978590969738,
-0.2540701627731323,0.04026681184768677,1.9540421389990124,1696616978601024216,
0.1227560043334961,0.559306800365448,1.951995185081876,1696616978611043596,
-0.426547110080719,0.09319460391998291,1.9567134601012752,1696616978620989076,
-0.2679360508918762,0.2086544632911682,1.6479298477414754,1696616978632802280,
-0.08918768167495728,0.6568543314933777,2.368500568742246,1696616978640996520,
0.2371993064880371,-0.12933272123336792,2.1420463578265023,1696616978650044783,
0.1911662220954895,0.49420803785324097,1.512111988759336,1696616978662913827,
-0.5216779112815857,0.2859678268432617,2.736594194675691,1696616978670037138,
-0.22442203760147095,0.32495713233947754,1.7646516704811277,1696616978681100827,
-0.4451829195022583,0.8069515228271484,1.9446297618759043,1696616978691154569,
-0.29510319232940674,-0.14632689952850342,1.957964346778901,1696616978701154275,
-0.11080902814865112,0.38319188356399536,1.7326648034529748,1696616978712434741,
0.022759675979614258,0.6116945743560791,2.2310016293274937,1696616978721120077,
0.22969669103622437,0.26479166746139526,1.8770788663554323,1696616978731385990,
-0.20133471488952637,0.5900207757949829,1.6752054041119133,1696616978742890920,
-0.5534914135932922,0.1013941764831543,2.3338231502428948,1696616978751209276,
-0.6157274842262268,0.35128873586654663,1.942677316535419,1696616978761298288,
0.15697568655014038,0.4807741641998291,1.9617353119295784,1696616978771282700,
0.3282473683357239,-0.15517288446426392,1.9653237446133234,1696616978781220124,
-0.049437880516052246,0.2692166566848755,1.7256548039355462,1696616978792482715,
-0.28304344415664673,0.32260167598724365,2.204542466939355,1696616978801254584,
-0.855384349822998,0.6173372268676758,1.92827673762921,1696616978811278568,
-0.3160642981529236,0.7357239127159119,1.4381975122633328,1696616978824680889,
-0.007765293121337891,0.10422331094741821,2.9007595094385827,1696616978831310253,
0.25586581230163574,0.3072982430458069,1.9267570063248571,1696616978841340616,
0.5035362243652344,0.4408690929412842,1.9265719368058285,1696616978851373648,
0.2789427638053894,0.3053593635559082,1.919610834012165,1696616978861353173,
0.2819896340370178,0.18955481052398682,1.6302445060544164,1696616978872823589,
0.19281744956970215,-0.33182114362716675,2.137409698636211,1696616978881350249,
0.0013009309768676758,0.22841650247573853,1.778635539620297,1696616978891408380,
-0.0169675350189209,0.4932279586791992,1.3803523295621853,1696616978904246008,
0.4014156460762024,0.22942405939102173,2.480211020264753,1696616978911413257,
0.23353588581085205,0.16159892082214355,1.786760448890089,1696616978921457074,
-0.20355552434921265,-0.032483041286468506,1.7903911055446837,1696616978931514666,
0.07486742734909058,0.32796919345855713,1.7911561884443183,1696616978941437610,
-0.12556898593902588,0.3881262540817261,1.666928113620496,1696616978951910589,
-0.3571431040763855,0.19227522611618042,1.7874855101508713,1696616978961579786,
0.10293537378311157,0.5024104714393616,1.7188184136807858,1696616978971625736,
0.29511576890945435,0.4403160810470581,1.336319109876736,1696616978984558231,
0.07211577892303467,0.45057350397109985,2.385526987079044,1696616978991787793,
-0.4584404230117798,0.15763592720031738,1.7411548888222725,1696616979001645870,
-0.6352831125259399,0.5495885014533997,1.6869884403104642,1696616979011827814,
-0.3213691711425781,0.3337782025337219,1.764129057119297,1696616979021591623,
-0.3027264475822449,0.008736491203308105,1.599253056130952,1696616979032425231,
0.26899659633636475,0.4224587678909302,1.9033241496714632,1696616979041625175,
0.056845664978027344,0.1504994034767151,1.7362349832429587,1696616979051828511,
-0.3329843282699585,0.8306429982185364,1.4308348410845546,1696616979064316140,
-0.5432800650596619,0.5275648832321167,2.45043082369424,1696616979071640719,
-0.38053131103515625,0.15507179498672485,1.8066957213793755,1696616979081663750,
-0.03609943389892578,0.7704962491989136,1.8194066995426212,1696616979091742469,
-0.6894531846046448,0.35833603143692017,1.845422608097838,1696616979101738812,
0.0772244930267334,0.6005873084068298,1.6915944406277656,1696616979112680100,
0.056973397731781006,0.2935166358947754,2.001660837488506,1696616979121966616,
-0.09229552745819092,0.2352948784828186,1.8921820793687973,1696616979131814752,
-0.28623032569885254,-0.023321092128753662,1.8641200201134485,1696616979151816892,
0.19911229610443115,0.2547455430030823,1.8539525513112947,1696616979161828671,
-0.586532473564148,0.4165423512458801,1.8527364196091212,1696616979171872642,
-0.30261528491973877,0.0853121280670166,1.860876257754157,1696616979181861413,
0.24688786268234253,0.5504608154296875,1.695791514140849,1696616979192814767,
0.11010390520095825,-0.013254821300506592,2.044476854428877,1696616979201888293,
-0.17894363403320312,0.4335740804672241,2.0543687678238576,1696616979210920125,
-0.5529322028160095,0.7922276258468628,1.3196858000759601,1696616979224953243,
0.19190055131912231,0.3841538429260254,2.634305557558235,1696616979231942839,
0.11100459098815918,0.503556489944458,1.7910580348430343,1696616979242218477,
0.3021059036254883,-0.022043883800506592,1.88488171291925,1696616979251989326,
0.3582354784011841,0.14918547868728638,1.8438532542689994,1696616979261980681,
0.020785927772521973,0.4122011065483093,1.8443554105839843,1696616979271914557,
0.08003300428390503,-0.038322627544403076,1.7858782891534208,1696616979282092314,
-0.4215383529663086,0.21616798639297485,1.7781514904137068,1696616979292273569,
-0.4325840473175049,0.16780775785446167,1.4924602757623546,1696616979304338795,
-0.27591031789779663,0.399652361869812,2.652920663657206,1696616979311088994,
-0.05565321445465088,0.6150553822517395,1.6158682040742745,1696616979322085605,
0.42861610651016235,0.18512648344039917,1.9510686289003023,1696616979331134793,
0.248363196849823,0.616858720779419,1.776416649680177,1696616979341080558,
-0.06271672248840332,0.5074031949043274,1.521754158137102,1696616979352739320,
-0.24129557609558105,0.31857019662857056,1.8903348481512767,1696616979362148841,
-0.4547427296638489,0.23115324974060059,1.7580617215263288,1696616979372237108,
-0.3316918611526489,-0.21684634685516357,1.4183904364653732,1696616979384693311,
0.01564580202102661,0.501556396484375,2.35601668240242,1696616979392212002,
0.031962811946868896,0.679940938949585,1.7855706731462155,1696616979402216873,
0.09028255939483643,0.32908594608306885,1.792144937144912,1696616979412293568,
-0.3364906311035156,0.30021029710769653,1.8364972398820119,1696616979422231984,
-0.5308322310447693,-0.000601351261138916,1.7083479464431166,1696616979432989166,
-0.3401280641555786,0.5123500227928162,1.959961913854044,1696616979442374687,
-0.2858394384384155,0.4619486927986145,1.8460363178417214,1696616979452310428,
-0.2303127646446228,-0.0007616877555847168,1.4769759998223453,1696616979464697671,
-0.12379491329193115,0.450325608253479,2.409323827658052,1696616979472288568,
-0.2897685170173645,0.2658537030220032,1.8313942055934762,1696616979482302740,
-0.07444363832473755,0.6290110349655151,1.819312221554432,1696616979492380461,
0.37555187940597534,0.5327887535095215,1.8303497828157471,1696616979502393990,
-0.009740054607391357,-0.07992708683013916,1.828949877571015,1696616979512436604,
0.005448579788208008,0.36816948652267456,1.8391695610779317,1696616979522408627,
0.2632155418395996,0.1389949917793274,1.7866385326292271,1696616979532584793,
-0.06173640489578247,0.14797067642211914,1.4982544283642414,1696616979544584597,
-0.32607901096343994,0.36555272340774536,2.2738969398740827,1696616979552394017,
-0.09140050411224365,-0.1375030279159546,1.7521169359615985,1696616979562437229,
0.1660289764404297,0.7423842549324036,1.7485918649130001,1696616979572480035,
0.5570634007453918,0.4588402509689331,1.7664576069497722,1696616979582451299,
0.054875314235687256,0.12835365533828735,1.7082019974778528,1696616979592854546,
-0.3606628179550171,0.3650670647621155,1.8109572766932083,1696616979602724377,
-0.19624638557434082,-0.010299265384674072,1.814080031166485,1696616979612574645,
0.15191501379013062,0.6015344858169556,1.5166354862712055,1696616979624256996,
0.22195333242416382,0.22573792934417725,2.1169373061936287,1696616979632519536,
0.2541567087173462,-0.046436309814453125,1.7327633847973785,1696616979642543451,
-0.0033794641494750977,0.6874930262565613,1.7233936454812055,1696616979652559157,
-0.3689039945602417,0.24850451946258545,1.7164719358206215,1696616979662600909,
-0.08180969953536987,0.558883547782898,1.7194525206636688,1696616979672681590,
-0.055804550647735596,0.26702725887298584,1.6371474006315692,1696616979683311304,
0.20241647958755493,-0.04191833734512329,1.7511711679398814,1696616979693299267,
-0.042593955993652344,0.6876454949378967,1.5984057964035088,1696616979704298480,
-0.38094663619995117,-0.03588980436325073,1.9647653308495612,1696616979713276151,
-0.25878024101257324,0.3624885082244873,1.710862968603955,1696616979723605780,
-0.7626581192016602,0.5300611257553101,1.9394632194864008,1696616979732704116,
-0.38262635469436646,0.143504798412323,1.6586010323009415,1696616979743320331,
0.12257808446884155,0.6667643189430237,1.7514821922813768,1696616979753353850,
0.21973562240600586,-0.06851369142532349,1.7515414822031057,1696616979763385045,
0.11450982093811035,0.11732733249664307,1.7592149054468158,1696616979773403812,
-0.38513845205307007,0.5325397253036499,1.556871627626072,1696616979784724741,
-0.5917907953262329,0.20597869157791138,2.0416140842935637,1696616979793359298,
-0.5106078386306763,0.4164687991142273,1.7574078900923364,1696616979803389383,
-0.45207053422927856,-0.10494285821914673,1.471731110884537,1696616979815342828,
0.12608027458190918,0.15988653898239136,2.174900761473037,1696616979823383053,
0.6198293566703796,0.6299003958702087,1.719449736560463,1696616979833412951,
-0.12525033950805664,0.21025347709655762,1.7047917402378714,1696616979843395829,
-0.3239865303039551,0.5988907814025879,1.6444225129492145,1696616979853686849,
-0.15981167554855347,0.3687674403190613,1.6087293267934928,1696616979864273790,
-0.05186617374420166,0.3189382553100586,1.8389407098446537,1696616979873500486,
0.4330520033836365,0.4576464891433716,1.6889782823522927,1696616979883492057,
0.46867090463638306,-0.4273177981376648,1.417244978058037,1696616979895399160,
0.3074849843978882,0.208065927028656,2.0796191438852247,1696616979903523730,
-0.5235756635665894,0.42135190963745117,1.6861973713328402,1696616979913503844,
-0.151972234249115,0.10578078031539917,1.6466085650475921,1696616979923596921,
0.3576699495315552,0.37383586168289185,1.6695513825930188,1696616979933524571,
0.43712466955184937,-0.2788464426994324,1.5178390508465016,1696616979944532782,
-0.10655015707015991,0.2167036533355713,1.8873639721770465,1696616979953513691,
-0.0707353949546814,0.25313419103622437,1.8011956468616572,1696616979962921080,
-0.5911608338356018,0.5823165774345398,1.333844094540665,1696616979975561441,
-0.42090094089508057,0.14780527353286743,2.1114360568622024,1696616979983602762,
-0.12334954738616943,0.6406025886535645,1.7031954694754747,1696616979993592214,
-0.011267006397247314,0.930263102054596,1.6901382373564144,1696616980003715139,
0.24969333410263062,-0.05126756429672241,1.732965016541652,1696616980013623387,
-0.3813694715499878,0.27059298753738403,1.6051881687398895,1696616980024483938,
-0.5872979760169983,0.18035966157913208,1.9391175296400436,1696616980033491241,
-0.22783267498016357,0.03605002164840698,1.7603237328793906,1696616980043462808,
-0.5558574795722961,0.41136157512664795,1.4153306170596782,1696616980055862579,
-0.06682765483856201,-0.23615294694900513,2.3138469855986172,1696616980063444773,
0.36655592918395996,0.6657964587211609,1.7200994058276227,1696616980073502351,
-0.1405600905418396,0.5309712290763855,1.7127663805121558,1696616980083540945,
-0.05800074338912964,0.07768583297729492,1.7129594060621969,1696616980093481113,
-0.11272680759429932,0.550911009311676,1.4731561325967153,1696616980105042086,
0.16045469045639038,0.0017403960227966309,1.997407203387836,1696616980113491270,
0.7280350923538208,0.3630945682525635,1.664477497644632,1696616980123572504,
0.23295563459396362,0.20535492897033691,1.2797941070982166,1696616980136583737,
0.028051018714904785,-0.014738798141479492,2.387905835953217,1696616980143521746,
-0.42212313413619995,0.6197646856307983,1.643662391240374,1696616980153538624,
-0.339117169380188,0.10747426748275757,1.649861346222872,1696616980163487158,
0.117237389087677,0.18576103448867798,1.6298476960868078,1696616980173609769,
-0.005702018737792969,0.44446396827697754,1.5428510054107045,1696616980184402545,
-0.25039345026016235,-0.01118391752243042,1.8453672475498413,1696616980193516600,
-0.3234859108924866,0.714977502822876,1.680122720687993,1696616980203608947,
-0.544571042060852,0.13664692640304565,1.2942890456819112,1696616980216658174,
-0.6222960948944092,0.10632359981536865,2.4277085648772623,1696616980223637355,
-0.35534799098968506,0.7650316953659058,1.6759597569838662,1696616980233712290,
0.44800013303756714,0.40395015478134155,1.6812478037551053,1696616980243717182,
0.6058975458145142,0.6512304544448853,1.688174099785297,1696616980253688471,
0.12475502490997314,0.0202752947807312,1.5706651756491572,1696616980264422349,
-0.5672178864479065,-0.07780206203460693,1.8252724682042778,1696616980273678189,
-0.5877542495727539,0.5483836531639099,1.6852518388523596,1696616980283662963,
-0.42293184995651245,0.048974454402923584,1.6673660570653843,1696616980303692720,
0.5223831534385681,-0.09998518228530884,1.6382304475411757,1696616980313705641,
0.5237298607826233,-0.02815800905227661,1.5934957964917198,1696616980323865348,
-0.05518829822540283,0.8310842514038086,1.6253746197198073,1696616980333727972,
-0.13290607929229736,0.2673722505569458,1.4971921599031586,1696616980344359519,
-0.5293825268745422,0.2813834547996521,1.6869918067538077,1696616980353727624,
-0.2183927297592163,0.450377881526947,1.5726739702253074,1696616980363736200,
0.2918171286582947,0.20500004291534424,1.372619220001633,1696616980375311068,
0.13123637437820435,0.5953295230865479,1.8879619261166614,1696616980383837801,
-0.3509886860847473,0.20309382677078247,1.6292503077680718,1696616980393774203,
-0.7465358972549438,0.15832167863845825,1.794134587645147,1696616980402903781,
-0.23218625783920288,0.6542923450469971,1.530158146270477,1696616980413714363,
0.01251310110092163,0.277831494808197,1.5026501948621547,1696616980424769617,
0.2339116930961609,0.47537803649902344,2.0502221048774976,1696616980432921488,
-0.03607374429702759,-0.08777725696563721,1.5471031586357875,1696616980443758946,
-0.27302074432373047,0.664054811000824,1.6775421659749599,1696616980463798954,
-0.37382274866104126,0.0540350079536438,1.6578307259741798,1696616980473835749,
0.2661871314048767,0.2278374433517456,1.81883122734476,1696616980482903821,
0.2918269634246826,0.21291977167129517,1.49671168731638,1696616980493850261,
0.2934678792953491,0.19018232822418213,1.5661981249347499,1696616980504331702,
0.0672537088394165,0.9514462947845459,1.717647773576901,1696616980513869016,
-0.37609660625457764,0.09549605846405029,1.5925322726822184,1696616980524097719,
-0.28322017192840576,0.35615938901901245,1.2855249594932323,1696616980536736591,
-0.43048518896102905,0.38296520709991455,2.6226729174558323,1696616980542904020,
-0.13768798112869263,0.01287388801574707,1.4667608201806779,1696616980553956530,
0.14903181791305542,0.6006271243095398,1.6033093868667805,1696616980564066210,
-0.26696258783340454,-0.09407025575637817,1.6429242533881134,1696616980573938952,
